# tool=multi_record
# schema_version=2
# sensors=accelerometer|linear_acceleration|gyroscope|magnetometer|gps
# Inertial correction: sensor=g_force; operation=add; unit=m/s^2; x=-0.10726921; y=-0.2757522; z=0.038988113
# Inertial correction: sensor=linear_acceleration; operation=add; unit=m/s^2; x=0.0; y=0.0; z=0.0
# Inertial correction: sensor=gyroscope; operation=add; unit=rad/s; x=0.0; y=0.0; z=0.0
time,gFx,gFy,gFz,ax,ay,az,wx,wy,wz,Bx,By,Bz,Latitude,Longitude,Speed (m/s),Altitude (m),
0.078376,0.1106,0.2571,0.8570,-0.0061,-0.0134,-0.0573,0.4432,0.4119,0.6734,12.9198,-15.3232,-42.1266,0.00000000,0.00000000,0.00000000,0.00000000,
0.178357,0.0756,0.2757,0.8249,0.1371,0.7123,-1.9069,-0.2705,0.1724,-0.0802,14.1398,-17.0190,-41.4434,0.00000000,0.00000000,0.00000000,0.00000000,
0.278610,0.0430,0.2476,0.9687,-0.2034,0.0641,0.0166,0.2883,0.0774,-0.1021,14.6278,-16.8726,-41.6508,0.00000000,0.00000000,0.00000000,0.00000000,
0.378848,0.0296,0.2369,1.1053,0.0036,0.4425,0.9132,-0.0144,0.0226,-0.2508,14.7010,-15.8722,-42.0534,0.00000000,0.00000000,0.00000000,0.00000000,
0.479028,0.1258,0.1911,1.0795,0.5937,-0.3302,1.5973,0.1385,0.0476,-0.1573,16.0064,-15.2744,-41.8338,0.00000000,0.00000000,0.00000000,0.00000000,
0.579616,0.0545,0.2408,0.8709,0.4510,-0.1115,-0.4987,0.0087,0.0720,-0.0824,16.4700,-14.5668,-40.8578,0.00000000,0.00000000,0.00000000,0.00000000,
0.679723,0.0205,0.2549,0.7695,0.0366,0.3015,-2.1397,-0.1351,0.0921,-0.1793,17.3484,-15.4818,-41.0042,0.00000000,0.00000000,0.00000000,0.00000000,
0.780180,0.0640,0.2538,0.9478,0.5418,0.4583,-0.9450,-0.0589,0.1376,-0.1861,17.7266,-14.2496,-41.2848,0.00000000,0.00000000,0.00000000,0.00000000,
0.880338,0.1037,0.2544,1.1123,0.7954,0.4846,0.9540,0.0933,-0.0338,-0.1778,18.1414,-14.0178,-40.7480,0.00000000,0.00000000,0.00000000,0.00000000,
0.980645,-0.0579,0.1705,1.1561,0.8501,0.0324,2.1652,0.0842,-0.0598,-0.3852,19.2760,-13.2492,-39.9916,0.00000000,0.00000000,0.00000000,0.00000000,
1.081133,0.0532,0.2137,0.9363,0.7053,-0.3359,0.0505,-0.0715,-0.0891,-0.2274,19.0808,-14.1154,-41.7118,0.00000000,0.00000000,0.00000000,0.00000000,
1.181316,0.0020,0.2967,0.7160,0.1320,0.2036,-2.0155,0.1203,-0.1274,-0.1498,19.6420,-13.2248,-41.1628,0.00000000,0.00000000,0.00000000,0.00000000,
1.281733,0.0606,0.2329,0.9753,0.6584,0.2703,-0.3269,0.0197,-0.1293,-0.1983,18.2146,-12.9320,-41.4556,0.00000000,0.00000000,0.00000000,0.00000000,
1.382120,0.0967,0.3273,0.8865,0.7378,0.3821,-0.9638,0.4618,-0.3086,-0.5626,18.9466,-14.3228,-42.2486,0.00000000,0.00000000,0.00000000,0.00000000,
1.482301,0.0766,0.2256,1.1544,-0.1175,0.2685,1.5417,-0.0705,-0.3187,-0.6884,20.1056,-11.6632,-43.1392,0.00000000,0.00000000,0.00000000,0.00000000,
1.582919,0.1189,0.2351,0.9349,0.8119,-0.2916,0.3781,-0.1852,-0.1767,-0.3137,19.3492,-10.4554,-42.7732,0.00000000,0.00000000,0.00000000,0.00000000,
1.682737,0.0678,0.2366,0.7434,0.6570,-0.0107,-1.5326,-0.0982,-0.1259,-0.3202,19.4346,-9.0890,-44.0176,0.00000000,0.00000000,0.00000000,0.00000000,
1.783065,0.0468,0.2546,0.9202,0.7257,0.1069,-1.0800,0.0006,0.0645,-0.4222,18.5074,-6.5270,-43.3954,0.00000000,0.00000000,0.00000000,0.00000000,
1.883372,-0.0158,0.2768,1.0619,0.2692,0.5037,0.1976,0.2400,0.0368,-0.3895,18.9100,-6.3074,-43.3954,0.00000000,0.00000000,0.00000000,0.00000000,
1.984266,0.1693,0.2414,1.1008,-0.0469,1.8700,1.0721,0.0034,-0.9780,-0.3875,18.4586,-8.3570,-43.2368,0.00000000,0.00000000,0.00000000,957.78534548,
2.083936,-0.0550,0.2737,0.8171,-1.8721,-0.6202,-0.8500,0.1931,-0.5716,0.0610,15.7136,-7.7470,-43.6272,46.89895210,-114.03963500,7.33291721,957.78534548,
2.184592,0.0330,0.2140,0.9007,-0.7595,-0.5075,-0.1105,-0.2547,-0.1950,0.0827,14.4814,-6.3196,-43.7858,46.89895210,-114.03963500,7.33291721,957.76798010,
2.284914,0.1888,0.3219,0.7199,0.4768,0.2966,-2.4244,-0.1331,-0.0537,-0.0736,13.7616,-6.7710,-44.2128,46.89897890,-114.03964940,1.52448082,957.76798010,
2.385020,0.0935,0.2741,0.9852,0.5007,0.3638,-0.1393,0.2760,-0.1844,-0.5948,14.1398,-6.3928,-45.7012,46.89897890,-114.03964940,1.52448082,957.76798010,
2.485388,-0.0152,0.3854,1.0793,-0.1064,0.6135,1.4955,-0.1209,-0.1429,-0.6270,13.0540,-4.6604,-44.6764,46.89897890,-114.03964940,1.52448082,957.76798010,
2.586065,-0.0416,0.0887,1.3226,-0.7171,-1.2284,5.0417,0.1046,-0.0057,-0.0734,13.4078,-1.4274,-45.1156,46.89897890,-114.03964940,1.52448082,957.76798010,
2.686170,0.1243,0.2739,0.5979,0.5147,0.2251,-3.2064,0.0475,-0.0827,0.1195,12.7978,-4.4042,-44.3592,46.89897890,-114.03964940,1.52448082,957.76798010,
2.786461,0.0393,0.2875,0.6529,-0.1310,0.3304,-3.3954,-0.0138,-0.0200,-0.0708,12.5538,-3.5380,-45.3840,46.89897890,-114.03964940,1.52448082,957.76798010,
2.886883,0.0600,0.3399,0.9838,0.2231,0.7267,-0.6770,0.1706,0.1188,-0.0208,12.9076,-4.0382,-44.9814,46.89897890,-114.03964940,1.52448082,957.76798010,
2.987179,0.0824,0.4137,1.2809,0.6140,1.0384,1.7648,-0.0245,0.1608,0.0697,13.4810,-6.6246,-44.4202,46.89897890,-114.03964940,1.52448082,957.76798010,
3.087425,-0.0362,0.1756,1.1124,-0.5667,-0.5786,2.6385,0.0526,-0.3740,0.1187,13.5176,-5.8926,-45.1522,46.89897890,-114.03964940,1.52448082,957.76798010,
3.187989,0.0798,0.2286,0.7722,0.3720,-0.2624,-1.2993,-0.5147,0.0900,-0.0138,11.7608,-4.9044,-45.9574,46.89897890,-114.03964940,1.52448082,957.76798010,
3.287915,0.0497,0.2232,0.6848,-0.4266,0.1018,-3.4041,-0.0714,-0.3467,0.0348,11.8706,-3.5258,-45.8110,46.89897890,-114.03964940,1.52448082,957.76798010,
3.388136,0.1318,0.3196,0.8629,0.0556,1.0236,-1.8304,0.1709,-0.2522,-0.2574,9.8942,-5.0386,-47.0066,46.89897890,-114.03964940,1.52448082,957.76798010,
3.489242,0.0518,0.4485,1.1783,-0.3731,-0.1733,2.8322,0.3392,0.2055,-0.1959,9.8576,-4.1358,-47.6166,46.89897890,-114.03964940,1.52448082,957.76798010,
3.588701,-0.0246,0.0279,1.7875,-0.9677,-1.7385,7.6801,-0.2220,0.2640,-0.0580,11.2606,0.7930,-46.1038,46.89897890,-114.03964940,1.52448082,960.81732178,
3.688962,0.1862,0.2755,0.5626,1.2402,0.5230,-2.9066,0.3842,-0.1119,0.1534,12.3464,-2.4644,-45.6768,46.89899280,-114.03966480,1.59877253,960.81732178,
3.789281,0.0096,0.2428,0.5794,-0.1310,-0.1414,-4.2952,0.2313,-0.0282,-0.2019,12.2000,-3.6966,-47.5190,46.89899280,-114.03966480,1.59877253,960.81732178,
3.889992,0.0819,0.3801,0.8288,-0.1699,1.0602,-2.3636,0.0373,-0.2207,0.0413,10.1382,-4.5506,-46.8846,46.89899280,-114.03966480,1.59877253,960.81732178,
3.989794,0.2075,0.2301,1.5330,1.1154,0.1465,4.1040,0.2788,-0.0927,0.1826,9.8332,-4.8434,-46.2502,46.89899280,-114.03966480,1.59877253,960.81732178,
4.090366,0.0039,0.1667,1.4397,-0.9079,-0.3499,3.2850,-0.3373,-0.3512,0.0085,9.3818,-6.7344,-46.9456,46.89899280,-114.03966480,1.59877253,960.81732178,
4.190628,0.0513,0.0926,0.8715,-0.1813,-0.9337,-2.0389,-1.1553,0.2026,-0.1786,8.4180,-4.1114,-48.1290,46.89899280,-114.03966480,1.59877253,960.81732178,
4.291316,0.0590,0.2081,0.7596,-0.2363,0.0589,-3.0767,-0.0469,-0.1500,-0.0118,9.2354,-1.5250,-46.5796,46.89899280,-114.03966480,1.59877253,960.81732178,
4.391802,0.1717,0.3479,1.0867,0.2908,1.1729,-1.2861,-0.4339,0.0949,-0.3054,8.2350,-1.6592,-47.6410,46.89899280,-114.03966480,1.59877253,960.81732178,
4.491672,0.1334,0.3134,1.0511,-2.0906,0.1817,3.1795,0.3167,-0.1265,0.0229,7.8202,-1.8056,-48.5926,46.89899280,-114.03966480,1.59877253,960.81732178,
4.592029,0.1545,0.0981,1.0835,0.3292,-1.9799,5.4688,0.5007,0.3815,0.1340,7.7104,-0.9028,-48.2510,46.89899280,-114.03966480,1.59877253,960.89422607,
4.692166,0.0323,0.1690,0.7575,-0.5085,-0.2820,-1.3248,0.2581,-0.0045,0.0116,8.4302,-0.4392,-47.6044,46.89904090,-114.03964690,1.94658518,960.89422607,
4.792753,-0.0003,0.1910,0.7367,-1.0670,-0.2764,-2.7713,0.2516,-0.0085,-0.0255,8.1984,-2.1228,-47.9704,46.89904090,-114.03964690,1.94658518,960.89422607,
4.893018,0.1083,0.3010,1.0817,-0.3026,0.2767,0.5093,0.2214,-0.1398,0.0886,8.1130,-4.3188,-47.8240,46.89904090,-114.03964690,1.94658518,960.89422607,
4.993654,0.1317,0.1554,1.4067,-0.4043,-0.1250,3.0812,-0.3360,-0.4637,0.3116,6.9784,-3.9894,-48.1168,46.89904090,-114.03964690,1.94658518,960.89422607,
5.093560,0.0950,0.2875,0.6746,-1.0242,-0.1169,-0.0907,0.1082,0.1230,0.2988,6.5880,-5.3924,-47.6288,46.89904090,-114.03964690,1.94658518,960.89422607,
5.193675,0.0130,0.1380,0.6520,-1.7976,-1.2620,-1.1124,0.1857,0.3430,0.5405,7.4420,-4.2212,-48.4462,46.89904090,-114.03964690,1.94658518,960.86993408,
5.294257,0.1618,0.1995,0.8258,-0.3704,-0.6172,-1.3953,0.2912,-0.0362,0.2601,7.1004,-4.8922,-48.1412,46.89905030,-114.03964440,2.03193092,960.86993408,
5.394379,0.0837,0.2304,1.0341,-0.4800,-0.0782,-0.5193,0.0670,-0.1136,-0.1631,7.6494,-6.3928,-48.2998,46.89905030,-114.03964440,2.03193092,960.86993408,
5.495284,0.3983,0.2347,1.1537,0.1508,-0.0143,1.4420,-0.4717,0.0785,-0.0175,6.9296,-6.9296,-48.5194,46.89905030,-114.03964440,2.03193092,960.86993408,
5.595454,0.3599,0.2139,0.9848,1.7065,0.1666,-0.6965,-1.1768,-0.2351,0.2215,5.8682,-5.9292,-47.8484,46.89905030,-114.03964440,2.03193092,960.86993408,
5.695643,0.1378,0.2774,0.4552,-0.4221,0.3301,-0.9549,0.9031,0.0258,0.1451,6.9418,-5.3802,-48.8976,46.89905030,-114.03964440,2.03193092,960.86993408,
5.795983,0.1431,0.2271,0.7791,0.0871,0.2326,-2.1420,-0.0342,-0.0148,-0.0639,7.4176,-5.4290,-49.0196,46.89905030,-114.03964440,2.03193092,960.76702881,
5.896375,0.1805,0.2797,1.0479,0.5834,0.6748,0.7208,0.1357,-0.0063,0.0679,7.8812,-5.7340,-48.6048,46.89905280,-114.03966160,1.76042986,960.76702881,
5.996283,0.0895,0.2943,1.0188,-0.1670,0.9125,0.3285,-0.2729,-0.2720,0.0037,9.0158,-6.3318,-47.5678,46.89905280,-114.03966160,1.76042986,960.76702881,
6.096746,0.0800,0.1229,1.0639,-0.3807,-0.7174,1.4631,0.1380,0.2603,0.3080,8.1374,-4.8922,-49.1050,46.89905280,-114.03966160,1.76042986,960.76702881,
6.197109,0.0317,0.1392,0.8471,-0.4041,-0.2613,-1.5665,-0.2002,0.1403,0.2223,9.2720,-4.0260,-48.4584,46.89905280,-114.03966160,1.76042986,960.76702881,
6.297390,0.1085,0.1900,0.8081,0.1354,0.2902,-1.9075,0.0773,-0.1858,0.0715,9.4184,-3.7210,-47.7020,46.89905280,-114.03966160,1.76042986,960.76702881,
6.397861,0.1538,0.2316,0.9423,0.5364,0.5031,-0.5354,0.0951,-0.1841,-0.2949,8.9426,-5.7096,-48.6048,46.89905280,-114.03966160,1.76042986,960.76702881,
6.498269,0.1566,0.2205,1.0169,0.2450,0.4820,0.5157,-0.1502,-0.1491,-0.2206,8.2228,-5.0630,-48.8976,46.89905280,-114.03966160,1.76042986,960.76702881,
6.598485,0.0915,0.1682,0.9478,-0.1654,0.0973,0.2122,-0.0480,-0.2273,-0.0938,8.1862,-2.2082,-47.9704,46.89905280,-114.03966160,1.76042986,960.76702881,
6.698538,0.1361,0.1739,0.8155,0.0493,0.3324,-1.2357,0.2657,0.1080,0.1875,8.0154,-0.8540,-47.9338,46.89905280,-114.03966160,1.76042986,960.76702881,
6.798692,0.1083,0.2537,0.8012,-0.0393,1.0398,-1.7742,0.1561,0.1735,-0.0179,8.7230,-2.2692,-49.2514,46.89905280,-114.03966160,1.76042986,960.45593262,
6.899168,0.0834,0.2494,1.0993,-0.0109,0.8230,0.5461,0.2265,0.1756,0.0044,8.8572,-3.4282,-48.1168,46.89905830,-114.03968120,1.61208761,960.45593262,
6.999533,0.1423,0.2871,1.1445,0.7458,1.2722,1.4819,-0.1054,0.1326,0.0505,10.1138,-3.4648,-47.5922,46.89905830,-114.03968120,1.61208761,960.45593262,
7.099636,0.0603,0.1316,0.9788,-0.2064,-0.5771,0.7233,0.5524,-0.3658,0.0335,9.5770,-4.1602,-47.6166,46.89905830,-114.03968120,1.61208761,960.45593262,
7.199938,-0.0523,0.0648,0.9006,-1.2019,-1.0864,-0.4675,-0.0238,0.2082,0.1839,8.7596,-4.3676,-48.7756,46.89905830,-114.03968120,1.61208761,960.45593262,
7.300654,0.1064,0.1792,0.8124,0.0274,0.0411,-1.9638,-0.0302,-0.1696,0.3409,8.6376,-5.0020,-47.8484,46.89905830,-114.03968120,1.61208761,960.45593262,
7.400559,0.1420,0.2551,0.9683,0.4061,0.6036,-0.0764,0.2467,0.0238,-0.0448,8.4668,-5.9292,-47.5556,46.89905830,-114.03968120,1.61208761,960.45593262,
7.500923,0.1521,0.3385,1.0908,0.3680,1.5207,1.6671,-0.0446,0.2157,-0.1647,8.4058,-6.5026,-48.5194,46.89905830,-114.03968120,1.61208761,960.45593262,
7.601506,0.0407,0.1464,1.1590,-0.4982,-0.4101,2.5853,0.5267,0.0702,0.0662,9.9308,-2.9524,-48.6414,46.89905830,-114.03968120,1.61208761,960.45593262,
7.701751,0.1582,0.2074,0.6988,0.6202,0.0803,-2.6877,0.1621,-0.2643,-0.0765,9.3574,-5.5632,-47.8606,46.89905830,-114.03968120,1.61208761,960.45593262,
7.802300,-0.0052,0.2281,0.6606,-0.9986,0.0953,-3.0889,0.0662,-0.0500,-0.1289,9.5526,-6.8076,-47.2628,46.89905830,-114.03968120,1.61208761,960.31719971,
7.902507,0.0172,0.3040,0.9852,-0.6147,0.6877,0.2508,0.4181,0.0602,0.1193,9.2598,-6.5026,-48.5316,46.89906610,-114.03969810,1.55681264,960.31719971,
8.002980,0.1118,0.4039,1.1958,0.0691,1.8263,2.4856,0.0087,0.1531,0.3401,9.2842,-7.6738,-47.7142,46.89906610,-114.03969810,1.55681264,960.31719971,
8.103182,-0.0133,0.2372,0.8772,-1.0888,-0.0779,-0.1274,0.3588,-0.1318,0.1065,10.1138,-7.9544,-48.0436,46.89906610,-114.03969810,1.55681264,960.31719971,
8.205504,0.0269,0.1052,1.0260,-0.4623,-0.8770,0.7534,-0.1995,0.2012,-0.0168,10.0528,-5.4778,-47.0188,46.89906610,-114.03969810,1.55681264,960.31719971,
8.305903,0.0372,0.1858,0.6975,-0.5870,-0.1160,-3.0734,-0.1158,-0.1032,0.1319,10.5042,-7.0638,-46.7504,46.89906610,-114.03969810,1.55681264,960.31719971,
8.406126,0.0838,0.2237,0.8798,0.0087,0.1019,-0.8270,0.2323,-0.0016,-0.0188,10.4066,-6.9052,-47.3848,46.89906610,-114.03969810,1.55681264,960.31719971,
8.506422,0.1089,0.3033,1.3601,0.2368,0.7642,3.3919,-0.3019,0.2781,-0.0549,9.4672,-6.5636,-48.1046,46.89906610,-114.03969810,1.55681264,960.31719971,
8.606687,0.1680,0.1043,1.2484,0.8341,-0.6356,3.0622,-0.0370,0.1593,-0.2057,11.5900,-4.3066,-47.2140,46.89906610,-114.03969810,1.55681264,960.31719971,
8.707078,0.1023,0.1698,0.8273,0.4325,-0.0133,-1.3421,-0.0121,0.0975,-0.0029,11.2240,-5.1728,-47.1286,46.89906610,-114.03969810,1.55681264,960.31719971,
8.807402,0.0508,0.2536,0.5673,-0.1115,0.6001,-4.0467,0.0942,0.0998,0.0269,12.4562,-5.5022,-47.1408,46.89906610,-114.03969810,1.55681264,960.31719971,
8.907490,0.0623,0.2532,0.9718,0.2216,0.7101,-0.1918,0.1564,0.0334,0.0407,12.9442,-3.9040,-47.8484,46.89906610,-114.03969810,1.55681264,960.39349365,
9.008120,0.0994,0.2995,1.2712,0.5424,0.9184,2.3327,-0.2711,0.1111,0.0765,12.3098,-5.0508,-46.7016,46.89907510,-114.03971870,1.52152932,960.39349365,
9.108480,-0.0420,0.0587,1.2635,-0.6562,-0.8237,2.7865,-0.0804,-0.2568,-0.0195,12.9442,-4.1724,-47.2140,46.89907510,-114.03971870,1.52152932,960.39349365,
9.208866,0.0806,0.1736,0.8073,0.3397,0.0296,-1.4844,-0.1093,0.1667,0.1540,11.9194,-4.7458,-47.7508,46.89907510,-114.03971870,1.52152932,960.39349365,
9.309074,0.0644,0.1813,0.7808,0.0145,0.2373,-2.0202,0.0891,-0.1705,0.1633,12.0780,-4.3432,-46.5796,46.89907510,-114.03971870,1.52152932,960.39349365,
9.409581,0.1013,0.2373,0.8712,0.3308,0.8591,-1.4470,-0.1565,-0.2430,-0.0699,11.4070,-5.3314,-47.0188,46.89907510,-114.03971870,1.52152932,960.39349365,
9.509912,0.1048,0.1551,1.1982,0.2297,-0.0403,1.5914,-0.0102,-0.0636,-0.0033,10.7848,-4.5018,-47.8484,46.89907510,-114.03971870,1.52152932,960.39349365,
9.610089,0.2609,-0.0064,1.4056,1.7154,-1.2753,3.1341,-0.8685,0.1666,-0.1118,10.1260,-4.2944,-47.9338,46.89907510,-114.03971870,1.52152932,960.39349365,
9.710519,0.1677,0.2046,0.6565,0.7771,0.3866,-2.9558,0.0199,0.0246,0.0059,10.8824,-4.6604,-47.5312,46.89907510,-114.03971870,1.52152932,960.39349365,
9.810882,0.0498,0.2291,0.6850,-0.1502,0.7405,-2.8766,-0.0068,0.1441,-0.2138,11.6754,-3.2086,-47.1774,46.89907510,-114.03971870,1.52152932,960.42358398,
9.911340,0.0504,0.2249,0.9269,-0.1916,0.8472,-0.8936,0.0210,-0.1180,0.0333,11.9316,-3.4526,-47.5068,46.89908160,-114.03973460,1.53466558,960.42358398,
10.011706,0.1718,0.3134,1.0910,0.9088,1.4130,1.1214,0.2074,-0.0273,0.1431,11.7730,-3.2818,-47.0676,46.89908160,-114.03973460,1.53466558,960.42358398,
10.112554,-0.0126,0.0903,1.3488,-0.4985,-0.3672,3.7485,0.0283,-0.2495,-0.1300,11.6754,-3.1964,-47.0676,46.89908160,-114.03973460,1.53466558,960.42358398,
10.212902,0.0080,0.2570,0.5724,-0.9499,0.6287,-3.3345,0.0683,-0.0110,0.0876,10.4920,-4.5384,-48.2632,46.89908160,-114.03973460,1.53466558,960.42358398,
10.313374,0.0070,0.2135,0.7199,-0.7523,0.3679,-2.1153,0.2974,0.0138,0.1467,10.7238,-3.0378,-47.6898,46.89908160,-114.03973460,1.53466558,960.42358398,
10.413719,0.1312,0.3019,1.0497,0.3295,1.1588,-0.0848,-0.1821,0.0413,0.0845,10.4676,-3.8796,-47.0798,46.89908160,-114.03973460,1.53466558,960.42358398,
10.513907,0.1416,0.2820,1.2398,0.1438,1.8094,1.5510,-0.3769,-0.1748,-0.0955,11.2484,-3.4404,-48.0314,46.89908160,-114.03973460,1.53466558,960.42358398,
10.613998,0.3221,0.0280,1.3327,2.3205,-1.0438,2.7580,-0.3397,-0.0131,-0.0718,9.2842,-3.0012,-47.5800,46.89908160,-114.03973460,1.53466558,960.42358398,
10.714370,0.0883,0.0584,1.1647,0.2052,-0.8760,0.9362,-0.5853,0.0349,0.0177,9.1988,-2.5742,-48.6292,46.89908160,-114.03973460,1.53466558,960.42358398,
10.814952,0.1014,0.2818,0.4452,0.0356,0.8656,-5.3707,0.2135,0.2204,-0.0529,10.1260,-3.9528,-49.0928,46.89908160,-114.03973460,1.53466558,960.42358398,
10.915149,0.0600,0.2202,0.9078,-0.1628,0.1259,-0.9724,0.2985,0.0840,0.1192,11.1264,-4.8434,-48.6048,46.89908950,-114.03975130,1.71119225,960.42358398,
11.015568,0.0023,0.4139,1.0693,-0.8447,1.7855,2.1953,0.6000,-0.0883,0.2200,10.8214,-7.6128,-48.0436,46.89908950,-114.03975130,1.71119225,960.42358398,
11.115981,0.0040,0.0323,1.0470,-1.4365,-2.9079,3.7260,0.8392,-0.0200,0.3737,8.8694,-8.9304,-48.8122,46.89908950,-114.03975130,1.71119225,960.42358398,
11.216127,0.0144,0.1120,0.7864,-0.8760,-0.8923,-0.8680,-0.2534,0.5605,0.1737,10.2114,-6.5880,-48.6414,46.89908950,-114.03975130,1.71119225,960.42358398,
11.316367,-0.0197,0.1539,0.7954,-0.7444,-0.0801,-2.0137,0.2515,-0.0488,0.1949,12.4196,-5.5266,-48.2022,46.89908950,-114.03975130,1.71119225,960.42358398,
11.416908,0.1283,0.1735,1.0000,1.0028,0.1627,-0.4298,0.0526,-0.1133,-0.2274,11.0776,-8.0398,-47.9460,46.89908950,-114.03975130,1.71119225,960.42358398,
11.517324,0.1050,0.3543,1.0458,0.4789,1.3271,0.7348,-0.0267,-0.0969,-0.1842,10.5774,-8.0154,-48.8976,46.89908950,-114.03975130,1.71119225,960.42358398,
11.617886,0.1169,0.0983,1.2335,0.3563,-0.7751,2.9630,-0.2029,-0.0368,-0.1252,10.5042,-5.7096,-47.3482,46.89908950,-114.03975130,1.71119225,960.42358398,
11.717971,0.0934,0.2157,0.7923,0.2646,0.4434,-1.4217,0.0624,0.1893,-0.0388,10.6872,-5.5266,-48.4096,46.89908950,-114.03975130,1.71119225,960.42358398,
11.818406,-0.0175,0.2422,0.6842,-0.8086,0.7408,-3.4014,-0.1098,0.1362,-0.0247,11.5168,-6.1610,-48.0070,46.89908950,-114.03975130,1.71119225,960.31719971,
11.918747,0.0626,0.2303,0.9854,0.1492,0.6280,-0.2299,0.0740,0.0834,0.1079,11.4924,-6.3562,-48.3242,46.89910010,-114.03977100,1.92792797,960.31719971,
12.019066,0.0520,0.2820,1.3186,0.4494,1.4419,3.4996,-0.0321,0.1410,0.0111,12.4440,-5.2460,-48.2022,46.89910010,-114.03977100,1.92792797,960.31719971,
12.119515,-0.0896,0.1533,0.9791,-1.2126,-0.5407,1.0971,0.5750,-0.0774,0.2186,13.0052,-6.8198,-47.6166,46.89910010,-114.03977100,1.92792797,960.31719971,
12.219840,0.0094,0.1119,0.8927,-0.3377,-0.5372,-1.0125,-0.3724,-0.0920,0.0874,12.5050,-6.7954,-48.4584,46.89910010,-114.03977100,1.92792797,960.31719971,
12.320148,0.0866,0.1820,0.6441,0.1037,0.1977,-3.4147,-0.2730,-0.0810,0.1540,12.3952,-5.8926,-48.1046,46.89910010,-114.03977100,1.92792797,960.31719971,
12.420384,0.0916,0.1683,0.9221,0.2831,0.3772,-0.5697,-0.1208,-0.1702,-0.0144,11.3826,-4.3432,-47.8484,46.89910010,-114.03977100,1.92792797,960.31719971,
12.521013,0.2212,0.1322,1.3278,0.9101,0.3645,2.2840,-0.1290,-0.2062,-0.1497,8.7474,-3.1842,-49.3856,46.89910010,-114.03977100,1.92792797,960.31719971,
12.620847,0.2135,0.0454,1.4131,1.6939,-0.2707,4.1106,-0.1817,0.4827,-0.5315,9.6746,-2.4400,-49.1538,46.89910010,-114.03977100,1.92792797,960.31719971,
12.721356,0.1757,0.1734,0.7950,1.0647,0.3411,-1.1892,0.4393,0.1716,-0.2167,10.4066,-3.1720,-48.0192,46.89910010,-114.03977100,1.92792797,960.31719971,
12.822506,0.0046,0.1976,0.7063,-0.5158,0.3594,-3.3123,-0.0198,0.1041,-0.2501,11.1142,-5.2826,-47.5556,46.89910010,-114.03977100,1.92792797,960.29406738,
12.922998,0.0713,0.2728,0.8763,-0.1267,0.8845,-1.4682,0.0813,-0.0223,0.0458,11.6876,-5.0508,-48.2876,46.89910810,-114.03978560,1.32870710,960.29406738,
13.023422,0.0888,0.3320,1.0300,0.1332,1.3202,0.8963,0.2357,0.0665,0.2127,12.1390,-5.5510,-47.8850,46.89910810,-114.03978560,1.32870710,960.29406738,
13.123881,0.0924,0.1659,1.2647,0.5412,0.0814,2.0135,-0.2754,-0.1651,0.0750,12.6270,-6.8564,-47.3970,46.89910810,-114.03978560,1.32870710,960.29406738,
13.224277,0.0202,0.1816,0.8330,-0.4838,-0.1690,-1.3498,-0.1791,-0.0541,0.1675,11.3582,-6.6490,-48.8732,46.89910810,-114.03978560,1.32870710,960.29406738,
13.324464,0.0254,0.1403,0.8778,-0.3870,-0.4246,-0.4851,-0.1245,0.1382,0.1332,11.5656,-5.5998,-47.6654,46.89910810,-114.03978560,1.32870710,960.29406738,
13.424810,0.0743,0.2161,0.8811,0.0663,0.7745,-1.7954,-0.2851,-0.0784,-0.0012,11.8218,-4.9288,-47.3360,46.89910810,-114.03978560,1.32870710,960.29406738,
13.524972,0.2200,0.2308,1.1420,1.8551,0.6955,1.5756,0.1967,-0.0350,-0.2768,10.6750,-4.5262,-48.5926,46.89910810,-114.03978560,1.32870710,960.29406738,
13.625350,0.2811,-0.0082,1.4177,1.5431,-0.1844,2.0588,-1.3644,0.0730,-0.7074,9.3208,-2.4644,-48.0924,46.89910810,-114.03978560,1.32870710,960.29406738,
13.725739,-0.0104,0.1237,1.0160,-0.9555,0.2056,-0.1459,0.1887,-0.2972,0.1719,11.6510,-0.9394,-48.1656,46.89910810,-114.03978560,1.32870710,960.29406738,
13.825986,0.1098,0.2099,0.5736,1.0937,0.4384,-3.8611,0.1148,0.1227,0.0800,11.0532,-3.5624,-48.1412,46.89910810,-114.03978560,1.32870710,960.16168213,
13.926755,0.1137,0.2455,0.8394,0.8742,0.8437,-1.6890,-0.0508,0.1680,-0.1140,10.9434,-3.4892,-48.6658,46.89911500,-114.03979940,1.41543889,960.16168213,
14.027351,0.0915,0.2411,1.1068,0.5692,0.6052,0.6451,-0.3085,0.0522,-0.2994,12.2610,-2.7938,-48.1290,46.89911500,-114.03979940,1.41543889,960.16168213,
14.127806,0.0005,0.1374,1.1885,-0.3459,0.6914,1.9431,-0.0817,-0.5684,-0.3094,12.3830,-1.3176,-48.2998,46.89911500,-114.03979940,1.41543889,960.16168213,
14.227656,-0.1229,0.0834,0.8936,-1.7222,-0.8449,-0.1301,-0.1351,0.0486,0.3047,10.1626,-1.3786,-48.5926,46.89911500,-114.03979940,1.41543889,960.16168213,
14.327978,-0.0399,0.0485,0.9407,-0.8045,-0.8167,0.5660,-0.0184,0.3192,0.3267,10.4798,1.0492,-47.6776,46.89911500,-114.03979940,1.41543889,960.16168213,
14.428330,0.0703,0.0975,0.8246,-0.3418,-0.0017,-2.0223,0.0707,-0.5147,0.2568,9.5038,-0.0732,-48.4462,46.89911500,-114.03979940,1.41543889,960.16168213,
14.528835,0.0948,0.1173,0.9122,-0.0852,-0.2805,-0.6768,0.1032,-0.0273,-0.0686,7.7958,-0.9882,-48.6780,46.89911500,-114.03979940,1.41543889,960.16168213,
14.628977,0.2361,0.0977,1.2739,0.5611,0.3977,2.5610,-0.2876,0.0480,-0.3597,7.6738,0.1708,-49.3856,46.89911500,-114.03979940,1.41543889,960.16168213,
14.729210,0.1597,-0.0082,1.1511,0.9436,-1.4707,3.3075,0.3281,0.4947,-0.5448,9.4794,1.8544,-47.8606,46.89911500,-114.03979940,1.41543889,960.16168213,
14.829687,-0.0413,0.1434,0.6066,-0.4032,0.1177,-3.5501,0.1647,0.0566,-0.2986,11.1264,1.0126,-48.4218,46.89911500,-114.03979940,1.41543889,960.24316406,
14.930067,0.0200,0.1838,0.7519,-0.2537,0.3557,-2.7535,0.1110,0.0260,-0.0234,11.4802,0.6832,-48.4462,46.89912350,-114.03981400,1.61728227,960.24316406,
15.030322,-0.0505,0.2254,1.0807,-0.5887,0.3232,0.6196,0.4532,0.0795,0.2326,10.5164,-0.6954,-48.2632,46.89912350,-114.03981400,1.61728227,960.24316406,
15.130607,0.2004,0.2384,1.2636,1.2899,1.2134,1.5325,-0.7777,0.0849,0.1570,11.6144,-2.6718,-47.4824,46.89912350,-114.03981400,1.61728227,960.24316406,
15.230831,0.0164,0.0510,1.0486,-0.8998,-1.4129,1.8275,0.4691,-0.4097,0.5378,11.0898,-1.9154,-48.2998,46.89912350,-114.03981400,1.61728227,960.24316406,
15.331356,-0.0111,0.0934,0.7530,-0.4111,-0.9329,-1.6350,-0.1987,0.3526,0.3471,10.3090,-1.8300,-49.1416,46.89912350,-114.03981400,1.61728227,960.24316406,
15.431764,0.1709,0.2625,0.6542,0.9089,0.9211,-3.9324,-0.1902,-0.2346,0.2832,11.7486,-3.0500,-48.9830,46.89912350,-114.03981400,1.61728227,960.24316406,
15.531715,0.1136,0.1558,1.1358,0.6412,-0.1682,2.1859,0.4465,0.1991,-0.2493,9.4672,-1.6348,-48.4950,46.89912350,-114.03981400,1.61728227,960.24316406,
15.632087,0.0753,0.2050,1.1869,0.1080,0.0720,2.4342,-0.1447,0.2713,-0.4767,10.1870,-2.1960,-48.8366,46.89912350,-114.03981400,1.61728227,960.24316406,
15.732431,0.0785,0.0057,1.2455,0.5734,-1.4388,3.3480,-0.1257,0.0368,-0.3227,11.4802,0.5124,-48.2388,46.89912350,-114.03981400,1.61728227,960.24316406,
15.832785,0.0335,0.1557,0.7042,-0.0222,-0.2220,-1.6393,0.2641,0.1552,0.0356,12.2244,0.1464,-47.5068,46.89912350,-114.03981400,1.61728227,960.24316406,
15.932888,0.0162,0.1805,0.6092,-0.4779,0.1768,-4.1651,-0.1156,-0.0574,0.0482,12.5538,-0.4758,-48.1656,46.89913150,-114.03983060,1.60052657,960.24316406,
16.033287,0.0078,0.1484,1.1236,-0.5270,-0.1704,-0.1656,0.0616,0.3200,0.4036,11.9072,-0.2562,-47.7264,46.89913150,-114.03983060,1.60052657,960.24316406,
16.133447,-0.0609,0.3102,1.2512,-0.2479,0.5167,1.5475,0.0671,0.1714,0.1381,14.0422,-2.2326,-47.9094,46.89913150,-114.03983060,1.60052657,960.24316406,
16.233712,-0.1303,-0.0132,1.3764,-0.4046,-1.6977,5.6283,0.6300,-0.4213,0.1739,12.3830,-1.3176,-48.1900,46.89913150,-114.03983060,1.60052657,960.24316406,
16.334237,-0.0691,0.0294,0.9715,-0.6789,-1.1338,-0.0063,-0.3052,0.0272,0.4957,11.4314,-2.4278,-48.2144,46.89913150,-114.03983060,1.60052657,960.24316406,
16.434507,0.0643,0.1532,0.5931,-0.5348,0.0153,-4.2200,-0.0345,-0.3997,0.7374,11.4802,-4.0626,-48.3730,46.89913150,-114.03983060,1.60052657,960.24316406,
16.534864,0.1918,0.1576,0.8450,0.5044,-0.0445,-1.8329,0.0536,-0.3242,0.1828,8.5400,-4.7458,-48.5804,46.89913150,-114.03983060,1.60052657,960.24316406,
16.635117,0.2166,0.1084,1.2160,0.7761,-0.2669,1.8695,-0.1205,-0.0028,-0.3538,7.1370,-4.1724,-48.9708,46.89913150,-114.03983060,1.60052657,960.24316406,
16.735320,0.2021,0.1417,1.3742,0.7487,0.1716,2.5422,-0.6230,0.1162,-0.2898,8.6376,-3.4648,-48.9708,46.89913150,-114.03983060,1.60052657,960.24316406,
16.836406,0.1165,0.1551,0.8971,0.1027,0.0537,0.5460,0.2777,0.1982,0.2169,9.1744,-2.8548,-48.7390,46.89913150,-114.03983060,1.60052657,960.31256104,
16.936421,0.0142,0.1392,0.5602,-1.0317,-0.1927,-4.2328,0.1639,-0.2167,0.2341,9.1866,-3.7820,-49.1904,46.89913910,-114.03984880,1.62789428,960.31256104,
17.036962,0.1004,0.2195,0.8274,-0.1922,0.5533,-2.2176,0.0694,-0.1309,0.0716,8.3082,-5.2338,-48.7024,46.89913910,-114.03984880,1.62789428,960.31256104,
17.137269,0.1442,0.2194,1.1409,-0.3129,0.5153,1.5417,0.2254,0.0603,0.2502,8.4424,-5.8560,-48.8244,46.89913910,-114.03984880,1.62789428,960.31256104,
17.237713,0.0389,0.0914,1.3956,-0.7055,-0.2487,3.0194,-0.2173,-0.0993,0.2602,9.1378,-6.7100,-49.0684,46.89913910,-114.03984880,1.62789428,960.31256104,
17.338055,0.1539,0.1601,0.7831,0.1195,-0.3618,-1.0705,-0.1108,0.1730,0.5291,9.3086,-7.2224,-48.3364,46.89913910,-114.03984880,1.62789428,960.31256104,
17.438322,0.0226,0.1730,0.5973,-1.0286,-0.1723,-2.9072,0.1436,0.1002,0.5753,10.4066,-6.4782,-49.0684,46.89913910,-114.03984880,1.62789428,960.31256104,
17.538584,0.1870,0.1685,0.9877,0.1479,0.1023,-0.5149,-0.0007,-0.1097,0.2675,9.2842,-7.4176,-48.6658,46.89913910,-114.03984880,1.62789428,960.31256104,
17.639187,0.1422,0.2550,0.9451,-0.4097,0.8221,-0.9398,-0.0005,-0.0447,-0.0356,9.5526,-7.7470,-48.5682,46.89913910,-114.03984880,1.62789428,960.31256104,
17.739378,0.2241,0.1272,1.2160,1.4551,-0.2038,1.6231,-0.7356,-0.0111,-0.3711,9.1866,-7.5152,-48.4462,46.89913910,-114.03984880,1.62789428,960.34954834,
17.839690,0.1607,0.1503,0.8291,0.3820,0.0352,-0.5359,0.0641,0.1614,0.2756,10.6384,-6.1610,-48.2144,46.89914550,-114.03986830,1.65750730,960.34954834,
17.939988,0.0713,0.1692,0.6224,-0.6270,0.0828,-2.9924,0.3454,0.0972,0.4200,10.3212,-7.5884,-49.1050,46.89914550,-114.03986830,1.65750730,960.34954834,
18.040437,0.0960,0.1695,0.8258,-0.2117,0.0429,-1.8013,0.2919,0.0659,0.3205,10.2358,-8.8572,-47.8606,46.89914550,-114.03986830,1.65750730,960.34954834,
18.140840,0.2182,0.2249,1.0003,1.3082,0.7072,-1.4705,-0.4039,-0.4923,-0.1503,10.3334,-11.2240,-48.1412,46.89914550,-114.03986830,1.65750730,960.34954834,
18.241130,0.2456,0.0532,1.3953,1.2681,-1.0076,3.5111,-0.0170,-0.2010,0.0638,9.5038,-9.5770,-48.0924,46.89914550,-114.03986830,1.65750730,960.34954834,
18.341895,0.1360,0.0615,1.0171,0.2159,-0.9594,0.1474,-0.3671,0.0524,0.1375,8.9426,-9.3696,-48.2876,46.89914550,-114.03986830,1.65750730,960.34954834,
18.442120,0.1243,0.1454,0.6177,-0.1956,-0.0352,-2.7928,0.0422,-0.0224,0.3179,9.0402,-9.3574,-48.1900,46.89914550,-114.03986830,1.65750730,960.34954834,
18.542415,0.2210,0.1570,0.8136,0.3502,0.2304,-2.2298,0.1161,-0.1002,0.0305,8.8206,-9.6624,-48.4096,46.89914550,-114.03986830,1.65750730,960.34954834,
18.645392,0.2002,0.1406,1.1259,0.1408,-0.0256,0.4877,0.1861,0.0183,-0.1291,9.0158,-10.8214,-48.4462,46.89914550,-114.03986830,1.65750730,960.34954834,
18.745355,0.2493,0.0865,1.6306,2.7442,0.2183,3.0358,-1.2688,0.3691,-0.8909,10.0406,-8.7962,-48.2876,46.89914550,-114.03986830,1.65750730,960.34954834,
18.845940,0.1628,0.1770,0.7979,1.1204,0.2082,0.7471,0.5225,0.4879,-0.0510,12.5050,-8.2472,-47.7508,46.89914550,-114.03986830,1.65750730,960.24548340,
18.946349,0.0453,0.1240,0.5102,0.0777,-0.3416,-4.1960,0.2420,-0.0125,0.0371,12.6392,-9.9796,-48.3364,46.89914800,-114.03989250,1.80797744,960.24548340,
19.046735,0.0713,0.1442,0.8127,-0.3597,-0.4048,-3.2081,-0.0999,-0.1267,0.2982,12.4196,-10.4432,-47.5068,46.89914800,-114.03989250,1.80797744,960.24548340,
19.147023,0.1622,0.2382,1.2404,0.3283,0.7869,1.3800,-0.0709,-0.0304,0.4122,11.9682,-11.1508,-48.1534,46.89914800,-114.03989250,1.80797744,960.24548340,
19.247418,0.0591,0.0347,1.6813,1.1398,-0.5576,6.0943,0.0031,0.0711,0.0572,11.5290,-9.4550,-48.1046,46.89914800,-114.03989250,1.80797744,960.24548340,
19.347722,0.1036,0.1216,0.8883,-0.1190,-0.2933,-1.1889,-0.2244,0.0319,0.2940,11.3948,-11.2850,-47.5190,46.89914800,-114.03989250,1.80797744,960.24548340,
19.448241,0.0599,0.1461,0.6046,-0.3680,-0.3951,-2.7470,0.4022,-0.0501,0.4251,11.4070,-12.3830,-47.1286,46.89914800,-114.03989250,1.80797744,960.24548340,
19.548614,0.2348,0.1477,1.0688,1.3957,-0.0899,-0.9697,0.0416,-0.1542,-0.2502,9.9186,-13.9202,-47.9094,46.89914800,-114.03989250,1.80797744,960.24548340,
19.649010,0.0829,0.1895,0.9085,-0.2254,-0.1435,-0.7377,0.0475,-0.0176,-0.4551,10.6994,-15.1158,-47.4092,46.89914800,-114.03989250,1.80797744,960.24548340,
19.749263,0.1035,0.1947,1.2557,-0.4142,0.2170,1.3915,-0.7926,0.0087,-0.3021,11.4070,-12.1268,-48.1778,46.89914800,-114.03989250,1.80797744,960.12872314,
19.849738,0.0838,0.1663,0.8859,-0.0627,-0.0758,0.9701,0.0414,0.2468,0.1978,11.3948,-11.1996,-47.6166,46.89914860,-114.03991360,1.55004680,960.12872314,
19.949973,0.0136,0.1584,0.6534,-0.4520,0.0289,-2.7807,0.0137,-0.0353,0.2425,12.2488,-11.1264,-48.4706,46.89914860,-114.03991360,1.55004680,960.12872314,
20.050438,0.0314,0.2034,0.7929,-0.5245,0.3963,-2.0335,-0.0268,0.0858,0.3089,11.9194,-10.6018,-48.1412,46.89914860,-114.03991360,1.55004680,960.12872314,
20.150687,0.1417,0.2091,1.2640,0.0356,0.4309,1.9426,0.0915,0.1087,0.5576,10.9190,-12.3586,-47.9704,46.89914860,-114.03991360,1.55004680,960.12872314,
20.251175,0.2983,0.0550,1.4667,2.0645,0.4153,2.8628,-0.6276,-0.2325,0.0742,12.0170,-11.8706,-47.8606,46.89914860,-114.03991360,1.55004680,960.12872314,
20.351890,0.1040,0.1929,0.6359,-0.0342,-0.2054,-1.9225,0.2507,-0.0527,0.1608,10.7848,-14.1886,-47.2750,46.89914860,-114.03991360,1.55004680,960.12872314,
20.452084,-0.0418,0.0994,0.6911,-1.3438,-0.4961,-2.6393,-0.2250,-0.0058,0.3055,12.1268,-12.9442,-47.4702,46.89914860,-114.03991360,1.55004680,960.12872314,
20.552500,0.0514,0.1151,0.8738,-0.6523,0.1421,-2.0996,-0.0495,-0.4517,0.3198,10.6384,-13.3956,-48.2144,46.89914860,-114.03991360,1.55004680,960.12872314,
20.652871,0.1415,0.2148,0.8682,0.1272,0.5043,-0.6154,0.1767,-0.0500,-0.0447,9.1378,-12.8222,-48.3974,46.89914860,-114.03991360,1.55004680,960.12872314,
20.753174,0.0463,0.2286,1.2373,-0.1602,-0.2922,4.3865,0.2240,0.4372,-0.1487,9.5404,-11.4070,-48.2510,46.89914860,-114.03991360,1.55004680,960.12872314,
20.853971,-0.0994,-0.0993,1.5632,-0.1547,-1.4862,6.5790,-0.0497,0.8635,-0.1416,14.0056,-8.7230,-47.5678,46.89914860,-114.03991360,1.55004680,960.24316406,
20.953946,0.0924,0.1747,0.5434,0.7156,0.3339,-3.3508,0.4440,-0.2238,0.1841,14.8962,-10.9068,-46.8968,46.89914800,-114.03993250,1.51913655,960.24316406,
21.054086,0.0446,0.2025,0.5624,-0.0012,0.5483,-5.1643,-0.2337,-0.1425,0.0269,13.8104,-12.3952,-47.0432,46.89914800,-114.03993250,1.51913655,960.24316406,
21.154432,0.0314,0.1238,1.1720,0.1180,0.1390,0.5228,0.0577,0.0101,0.0059,13.0174,-11.5656,-46.8968,46.89914800,-114.03993250,1.51913655,960.24316406,
21.254832,0.0767,0.2727,1.1819,0.5339,0.3067,1.9938,-0.0149,0.2907,0.2000,13.7616,-12.9564,-47.2628,46.89914800,-114.03993250,1.51913655,960.24316406,
21.355337,0.0160,-0.0640,1.2109,-0.4923,-2.5490,5.7794,0.4650,-0.1769,0.2251,13.5786,-11.6022,-47.3360,46.89914800,-114.03993250,1.51913655,960.24316406,
21.455654,-0.0129,0.0789,0.6082,-0.5451,-0.5771,-2.9839,-0.3173,0.1634,0.2307,13.4200,-12.5294,-46.9334,46.89914800,-114.03993250,1.51913655,960.24316406,
21.555903,-0.0104,0.1778,0.5916,-0.5593,0.7827,-4.6056,-0.3350,-0.1241,0.3178,12.3220,-11.5656,-47.8484,46.89914800,-114.03993250,1.51913655,960.24316406,
21.656331,0.1561,0.0923,1.4742,0.7972,0.0943,4.5616,0.2671,0.0086,-0.0077,10.8824,-10.4310,-47.7020,46.89914800,-114.03993250,1.51913655,960.24316406,
21.756804,0.2789,0.0785,1.5146,1.3278,0.3178,4.5820,-0.2314,0.0358,-0.2035,11.0410,-10.8702,-47.7142,46.89914800,-114.03993250,1.51913655,960.24316406,
21.857355,0.1254,-0.0780,1.1014,0.7945,-2.0927,4.1039,1.1375,-0.0771,0.1650,12.5050,-11.9804,-46.9090,46.89914800,-114.03993250,1.51913655,960.34722900,
21.957490,0.1671,0.0516,0.7128,1.4038,-0.7134,-3.5944,-0.8088,0.3510,-0.1156,11.5534,-14.2740,-46.8602,46.89914550,-114.03995680,1.75444567,960.34722900,
22.057959,0.0184,0.1108,0.5277,-0.1566,0.3750,-5.1293,-0.3435,0.2017,-0.1409,13.3224,-11.2728,-47.5312,46.89914550,-114.03995680,1.75444567,960.34722900,
22.158258,0.0181,0.1675,0.5121,-0.5919,0.4405,-4.4939,0.5591,-0.0528,0.1075,13.7006,-12.5050,-47.5678,46.89914550,-114.03995680,1.75444567,960.34722900,
22.258667,0.0254,0.2051,1.0226,-0.5349,0.4482,-0.7013,0.3619,-0.0575,0.2028,12.8588,-14.8596,-46.4698,46.89914550,-114.03995680,1.75444567,960.34722900,
22.359277,-0.0143,0.2948,1.1943,-0.9010,1.2701,4.9556,0.7529,-0.0220,0.6052,14.3350,-16.8970,-46.0062,46.89914550,-114.03995680,1.75444567,960.34722900,
22.459586,0.0450,0.1215,1.1551,0.1732,-1.3015,3.9941,-0.0976,0.0142,0.1745,12.4074,-18.3732,-45.2986,46.89914550,-114.03995680,1.75444567,960.34722900,
22.560132,0.0619,0.0886,0.7372,-0.0486,-0.8563,-3.3869,-0.7976,-0.0432,0.2985,11.7852,-18.6416,-46.4698,46.89914550,-114.03995680,1.75444567,960.34722900,
22.660480,0.0840,0.1093,0.7847,-0.4407,-0.6652,-2.0575,0.2937,-0.2190,0.3740,10.5164,-16.3968,-46.9212,46.89914550,-114.03995680,1.75444567,960.34722900,
22.760732,0.0575,0.1892,0.8762,0.0556,-0.0694,-1.6515,0.4545,-0.0111,0.1107,9.2476,-19.2638,-45.9330,46.89914550,-114.03995680,1.75444567,960.34722900,
22.861433,0.1232,0.2425,1.2789,0.1227,-0.3303,1.8963,0.3355,0.1344,0.0894,8.7718,-21.6794,-45.5792,46.89914160,-114.03998210,1.59673762,960.34722900,
22.961400,0.1895,0.0414,1.4984,1.2367,-1.3473,4.9171,-0.6387,0.4868,0.0007,9.3940,-19.9714,-45.5304,46.89914160,-114.03998210,1.59673762,960.34722900,
23.061685,0.1402,0.1702,0.8037,-0.2071,-0.7304,-0.6397,0.4046,-0.5020,0.6015,8.9304,-20.9352,-45.3474,46.89914160,-114.03998210,1.59673762,960.34722900,
23.161974,0.0896,0.2896,0.6280,-0.4430,0.5868,-3.3023,0.0324,0.2707,0.2551,7.2468,-22.8384,-44.8594,46.89914160,-114.03998210,1.59673762,960.34722900,
23.262440,0.0341,0.2757,0.8734,-0.7870,0.4796,-0.7662,0.2414,0.3782,0.2832,8.1252,-22.5700,-45.2742,46.89914160,-114.03998210,1.59673762,960.34722900,
23.362573,0.0317,0.3202,1.0471,-0.6109,0.4941,0.7675,0.4433,0.2738,0.5672,8.6864,-24.4000,-43.8468,46.89914160,-114.03998210,1.59673762,960.34722900,
23.463087,0.2321,0.0726,1.4436,1.0146,-1.1921,3.5615,-0.8290,-0.4521,0.4480,7.4664,-26.3642,-43.8956,46.89914160,-114.03998210,1.59673762,960.34722900,
23.563595,-0.0183,0.2682,0.5710,-1.0946,-0.8050,-2.4115,-0.1656,0.1518,0.5756,7.1492,-28.2064,-42.6756,46.89914160,-114.03998210,1.59673762,960.34722900,
23.664456,-0.0890,0.1368,0.9185,-0.8910,-0.5222,0.1722,0.0087,0.1902,0.7007,6.1854,-26.5960,-44.3226,46.89914160,-114.03998210,1.59673762,960.34722900,
23.764072,0.0247,0.1871,0.8388,0.0298,0.0249,-1.6018,-0.0416,0.0254,0.7057,5.2948,-27.3158,-43.3832,46.89914160,-114.03998210,1.59673762,960.40625000,
23.864810,0.1059,0.2267,0.9056,0.8943,0.2454,-0.6180,0.2914,0.1222,0.4307,3.4526,-28.4382,-43.9322,46.89913610,-114.04000020,1.29388511,960.40625000,
23.965089,0.2272,0.2438,1.1557,1.4402,0.1057,1.6062,0.0027,0.0757,-0.0455,2.6718,-29.1336,-42.4560,46.89913610,-114.04000020,1.29388511,960.40625000,
24.065477,0.0645,0.4941,0.7878,0.3131,1.5204,-1.0468,0.5692,0.0884,-0.2077,3.5502,-31.5004,-41.7850,46.89913610,-114.04000020,1.29388511,960.40625000,
24.166031,-0.0756,0.0572,1.2501,-0.7497,-2.0100,3.5541,-0.2964,0.4594,-0.1533,5.0630,-27.7062,-43.4930,46.89913610,-114.04000020,1.29388511,960.40625000,
24.266347,0.0596,0.2598,0.7177,0.4941,0.5644,-2.5488,-0.0125,-0.0293,0.3724,5.5998,-27.0962,-43.3710,46.89913610,-114.04000020,1.29388511,960.40625000,
24.366726,0.0702,0.2431,0.8514,0.7334,0.4719,-1.3770,0.0796,0.0821,0.0906,5.5998,-27.0108,-43.6882,46.89913610,-114.04000020,1.29388511,960.40625000,
24.466973,0.0429,0.2169,1.0968,0.7462,0.0610,0.9081,0.2048,0.3826,0.1048,6.6612,-28.3528,-42.7854,46.89913610,-114.04000020,1.29388511,960.40625000,
24.567356,0.1279,0.2399,1.3679,1.7061,0.0314,3.5940,-0.0292,0.1410,0.2337,7.5762,-29.2434,-41.7606,46.89913610,-114.04000020,1.29388511,960.40625000,
24.667972,0.0949,0.1599,0.9911,1.2158,-0.9519,0.7432,0.1325,-0.1315,0.2073,7.9300,-29.5606,-41.5532,46.89913610,-114.04000020,1.29388511,960.40625000,
24.767876,0.0741,0.1740,0.6933,0.8847,-0.8568,-2.3152,0.1833,-0.1297,0.1530,6.5392,-30.0852,-41.6630,46.89913610,-114.04000020,1.29388511,960.40625000,
24.868330,0.1719,0.2224,0.7066,1.5326,-0.2490,-2.6799,-0.2736,-0.5281,-0.1540,4.2944,-30.3414,-42.6146,46.89913610,-114.04000020,1.29388511,960.27557373,
24.968971,0.1480,0.1783,0.8850,1.1192,-0.5462,-0.6047,-0.0354,0.0231,-0.3367,3.4160,-29.3288,-42.6756,46.89912630,-114.04001510,1.28778601,960.27557373,
25.068927,0.2046,0.3482,1.0347,1.5979,0.8144,-0.1797,-0.3441,-0.2018,-0.5005,4.9654,-29.1702,-42.4804,46.89912630,-114.04001510,1.28778601,960.27557373,
25.170567,0.0818,0.0454,1.2985,1.2877,-1.1739,3.8768,-0.3536,0.3247,-0.7787,8.7352,-24.7782,-44.6032,46.89912630,-114.04001510,1.28778601,960.27557373,
25.271125,0.2812,0.2363,0.7054,2.3362,0.2915,-1.9668,0.4184,-0.4834,0.0194,7.3078,-25.7542,-44.7252,46.89912630,-114.04001510,1.28778601,960.27557373,
25.371412,0.1450,0.2596,0.7560,1.2465,0.8449,-1.9457,0.1553,0.1333,-0.4817,6.2952,-25.3882,-43.9688,46.89912630,-114.04001510,1.28778601,960.27557373,
25.471547,0.0985,0.2730,0.7627,0.7392,0.7904,-2.3464,0.0796,0.1319,-0.5353,8.7230,-25.3028,-43.3466,46.89912630,-114.04001510,1.28778601,960.27557373,
25.572029,0.0513,0.2634,1.1050,0.5647,0.3063,1.5427,0.6191,0.3351,0.0241,11.3948,-25.4858,-43.3710,46.89912630,-114.04001510,1.28778601,960.27557373,
25.672259,0.2477,0.2994,1.0809,2.0336,0.6308,0.7298,-0.0129,-0.5611,0.0860,11.7608,-27.3280,-41.6264,46.89912630,-114.04001510,1.28778601,960.27557373,
25.772838,0.0828,0.1465,1.0317,0.9565,-0.7724,0.9725,-0.3787,-0.4259,-0.4116,9.5038,-26.3154,-43.0660,46.89912630,-114.04001510,1.28778601,960.27557373,
25.873146,0.0128,0.1059,0.9726,-0.2590,-0.8697,0.3909,-0.0532,-0.2118,-0.2509,8.4302,-23.6314,-44.8838,46.89912630,-114.04001510,1.28778601,960.27557373,
25.973404,0.0892,0.1962,0.6300,-0.1321,-0.0670,-3.4623,-0.0133,-0.3223,-0.0846,7.2224,-24.5708,-44.1640,46.89911670,-114.04002540,1.27686787,960.27557373,
26.073970,0.2159,0.1984,0.7686,0.8664,-0.1820,-1.8412,0.2102,0.0111,-0.1174,5.7584,-24.9002,-44.2616,46.89911670,-114.04002540,1.27686787,960.27557373,
26.174046,0.2702,0.1519,1.2255,1.7201,-0.2653,1.2591,-0.5673,0.2957,-0.6594,8.0764,-24.6562,-44.1762,46.89911670,-114.04002540,1.27686787,960.27557373,
26.274468,0.3332,-0.0408,1.6718,2.8441,-1.1834,4.8246,-2.0187,0.1066,-1.0476,10.0284,-20.4594,-45.5548,46.89911670,-114.04002540,1.27686787,960.27557373,
26.375202,0.1517,0.3338,0.4294,0.7368,1.1294,-4.2299,0.7125,-0.3699,0.2552,11.5900,-19.8494,-46.2868,46.89911670,-114.04002540,1.27686787,960.27557373,
26.475471,0.0646,0.2807,0.6580,0.2383,1.4757,-3.4618,-0.6862,-0.1394,-0.4813,9.9552,-18.6538,-46.5552,46.89911670,-114.04002540,1.27686787,960.27557373,
26.575943,-0.0043,0.1812,0.9329,-0.8844,0.9175,-1.0650,-0.2689,0.0840,-0.2709,10.6384,-16.1162,-46.9090,46.89911670,-114.04002540,1.27686787,960.27557373,
26.676195,0.0119,0.1834,1.1888,-0.2229,0.5953,2.0999,0.5102,0.5141,0.3961,12.7978,-15.7746,-46.0672,46.89911670,-114.04002540,1.27686787,960.27557373,
26.776766,0.3455,0.0643,1.7304,2.5100,0.2078,3.8661,-1.4113,-1.1828,0.1483,12.1390,-17.8608,-46.2380,46.89911670,-114.04002540,1.27686787,960.27557373,
26.877266,0.1224,0.1896,0.7774,0.2108,0.1893,-1.2761,0.5746,-0.2247,0.7423,9.4794,-18.9588,-45.3962,46.89911670,-114.04002540,1.27686787,960.34722900,
26.977514,0.1253,0.1344,0.7117,0.0234,-0.2507,-2.1135,0.3856,0.0371,0.5606,6.1488,-20.6912,-46.2746,46.89910880,-114.04004150,1.49662578,960.34722900,
27.078106,0.1848,0.1650,0.5449,0.0206,-0.2190,-4.3514,0.0874,-0.0989,0.2242,4.3066,-23.5216,-45.2742,46.89910880,-114.04004150,1.49662578,960.34722900,
27.178343,0.1477,0.1311,0.7405,-0.0843,-0.8937,-0.9932,1.2654,0.0779,-0.0908,5.4656,-23.5704,-44.6520,46.89910880,-114.04004150,1.49662578,960.34722900,
27.278633,0.1006,0.3015,1.2931,0.3272,-0.0559,2.2063,0.1292,0.5647,-0.6190,6.2342,-26.2178,-43.6760,46.89910880,-114.04004150,1.49662578,960.34722900,
27.378960,-0.1736,-0.1016,1.7315,-0.5729,-1.9416,7.3982,-1.0704,0.4471,-1.1866,11.6754,-21.4598,-45.1644,46.89910880,-114.04004150,1.49662578,960.34722900,
27.479392,0.3193,0.2945,0.7488,2.2219,1.0366,-1.0248,0.2195,0.1122,0.6383,11.3216,-21.1304,-44.9448,46.89910880,-114.04004150,1.49662578,960.34722900,
27.579604,0.0060,0.2663,0.5006,-0.3430,1.1008,-4.5554,0.0661,-0.1422,0.0716,11.1508,-20.7888,-45.5670,46.89910880,-114.04004150,1.49662578,960.34722900,
27.680009,0.0317,0.1972,0.8558,-0.7677,0.4120,-2.1963,-0.3249,-0.2278,0.1882,9.0158,-20.9352,-45.7622,46.89910880,-114.04004150,1.49662578,960.34722900,
27.781336,-0.0613,0.1874,1.2255,-1.4060,0.0430,2.5726,0.6740,0.6427,0.4455,10.6384,-21.2158,-45.5792,46.89910880,-114.04004150,1.49662578,960.34722900,
27.881065,-0.1105,0.3045,1.4963,-1.1021,0.4988,3.7082,-0.0630,0.2822,0.9255,11.9560,-24.5098,-43.3466,46.89910880,-114.04004150,1.49662578,960.38659668,
27.981128,-0.0443,0.1315,1.1358,-0.8724,-0.9698,2.2824,0.3917,-0.2004,1.1934,10.2968,-25.7908,-43.9078,46.89910260,-114.04006120,1.57015097,960.38659668,
28.081810,0.2174,0.1514,0.8633,1.1789,-0.5373,-0.5170,0.0644,0.3039,0.6844,6.2952,-28.0234,-42.8830,46.89910260,-114.04006120,1.57015097,960.38659668,
28.182237,0.2429,0.2470,0.4889,0.8495,0.2570,-5.0636,-0.1249,-0.1919,0.0835,4.9166,-30.0730,-41.6508,46.89910260,-114.04006120,1.57015097,960.38659668,
28.282440,0.2126,0.1805,0.8401,0.4866,-0.6616,-0.4642,0.5540,-0.1433,-0.3806,4.8434,-29.5362,-42.3828,46.89910260,-114.04006120,1.57015097,960.38659668,
28.382767,0.1206,0.0822,1.3450,0.0795,-1.2992,2.5999,-0.2310,-0.2665,-1.0797,5.6242,-29.7070,-41.1140,46.89910260,-114.04006120,1.57015097,960.38659668,
28.483236,0.1412,-0.0750,1.9732,0.7400,-1.2299,7.1962,-2.2986,0.0755,-1.3362,7.4420,-25.1930,-44.8228,46.89910260,-114.04006120,1.57015097,960.38659668,
28.583488,0.1268,0.3435,0.6774,-0.5673,1.5525,-2.3772,0.1819,-0.4182,0.5192,8.1984,-23.0092,-44.7618,46.89910260,-114.04006120,1.57015097,960.38659668,
28.683575,0.0932,0.3302,0.5016,-0.5672,1.9357,-5.0978,-0.3733,-0.2611,0.0712,5.4778,-23.5704,-44.4324,46.89910260,-114.04006120,1.57015097,960.39465332,
28.784102,0.1655,0.1734,1.1244,-0.9230,0.9013,0.4493,-0.3579,-0.2194,0.1300,4.0870,-21.3500,-45.5304,46.89910100,-114.04006710,1.56527603,960.39465332,
28.884305,0.1813,0.0957,1.2688,-0.5119,-0.3465,3.4206,0.6581,0.3919,0.6023,4.6726,-22.4846,-45.6768,46.89910100,-114.04006710,1.56527603,960.39465332,
28.984415,-0.0402,0.3661,0.9624,-2.1791,1.8767,0.7880,0.8153,0.3405,0.9908,7.7226,-25.5102,-43.9810,46.89910100,-114.04006710,1.56527603,960.39465332,
29.084950,0.0591,-0.0932,1.2697,-0.2343,-2.3965,4.0042,0.2776,-0.2547,0.0122,4.4652,-26.5960,-44.0908,46.89910100,-114.04006710,1.56527603,960.39465332,
29.185687,0.1137,0.1181,0.7459,0.0296,-0.7792,-1.8009,0.1794,0.1170,-0.1734,3.8186,-27.7428,-43.3832,46.89910100,-114.04006710,1.56527603,960.39465332,
29.285997,0.2059,0.2470,0.6175,0.0597,0.1860,-3.4699,0.1880,-0.5467,0.0641,2.9524,-29.3654,-41.8338,46.89910100,-114.04006710,1.56527603,960.39465332,
29.386415,0.2656,0.2724,0.6542,0.4065,-0.0183,-2.1027,0.4164,-0.3434,-0.1676,1.0492,-30.1340,-42.5780,46.89910100,-114.04006710,1.56527603,960.39465332,
29.486806,0.3978,0.1900,0.9881,1.4231,0.0132,-0.8732,-1.0177,-0.0380,-1.1003,1.0004,-29.6704,-42.1388,46.89910100,-114.04006710,1.56527603,960.39465332,
29.587321,0.2498,-0.1234,1.6647,0.5041,-2.2047,4.8076,-1.6582,0.0923,-1.1294,4.7214,-24.3878,-45.0912,46.89910100,-114.04006710,1.56527603,960.39465332,
29.687377,0.3177,0.1919,0.8256,-0.0893,-0.2517,-0.1422,0.0543,-0.3295,0.3869,4.4042,-22.1552,-45.9818,46.89910100,-114.04006710,1.56527603,960.39465332,
29.787648,0.0752,0.2151,0.5235,-1.1569,0.5618,-3.5073,-0.0688,0.1478,-0.3551,4.4652,-20.2276,-46.0306,46.89910100,-114.04006710,1.56527603,960.39465332,
29.888070,0.1266,0.1036,1.0524,-1.2871,0.3575,-0.3380,-0.5954,-0.3532,-0.3462,4.3188,-18.0682,-47.4580,46.89909540,-114.04009470,1.29569852,960.39465332,
29.988482,0.0746,0.0188,1.3620,-1.5279,-0.8556,3.5887,0.0848,0.6108,0.2801,4.6116,-16.8482,-47.3116,46.89909540,-114.04009470,1.29569852,960.39465332,
30.088619,0.1334,0.1670,1.3352,-0.6001,0.8696,2.9327,0.1754,0.6502,0.5865,7.4664,-18.4586,-46.7504,46.89909540,-114.04009470,1.29569852,960.39465332,
30.189163,0.0219,0.2047,0.8752,-1.4106,0.3033,-0.5061,0.9023,0.1075,1.0030,8.9670,-22.8506,-45.1888,46.89909540,-114.04009470,1.29569852,960.39465332,
30.289386,0.0728,0.0967,0.9335,-0.0912,-0.5303,-0.9324,-0.3599,0.3064,0.1257,7.9544,-24.9490,-44.3958,46.89909540,-114.04009470,1.29569852,960.39465332,
30.389624,0.0784,0.1181,0.6460,-0.7035,-1.0317,-2.9016,0.6629,-0.0070,0.9471,8.1740,-26.1080,-43.5784,46.89909540,-114.04009470,1.29569852,960.39465332,
30.490175,0.1362,0.1701,0.7926,0.2376,-0.3780,-2.1750,-0.1562,-0.1692,0.1723,6.1488,-28.7676,-42.6878,46.89909540,-114.04009470,1.29569852,960.39465332,
30.590976,0.2262,0.1741,1.0015,0.9543,0.1217,-0.3376,-0.4580,-0.2163,-0.6242,5.6486,-27.7306,-43.1880,46.89909540,-114.04009470,1.29569852,960.39465332,
30.691674,0.2282,0.0645,1.5050,0.8938,-0.3418,3.7711,-1.0007,-0.1094,-0.7835,7.1614,-23.9486,-44.9936,46.89909540,-114.04009470,1.29569852,960.39465332,
30.791966,0.1317,0.1341,0.8860,-0.0176,-0.3623,-0.0585,0.4053,0.0963,-0.0615,8.2716,-22.0942,-45.0546,46.89909540,-114.04009470,1.29569852,960.27557373,
30.892379,0.0162,0.2117,0.7121,-0.5922,0.5722,-2.8554,0.1509,-0.1264,-0.3774,9.0402,-23.2044,-44.9814,46.89909020,-114.04011440,1.35058832,960.27557373,
30.992988,0.0387,0.2181,0.8917,-0.6237,0.5063,-1.2742,0.0782,-0.0803,-0.2773,8.6376,-23.6924,-44.2494,46.89909020,-114.04011440,1.35058832,960.27557373,
31.093946,0.1007,0.2176,1.1180,-0.1517,0.2342,1.0358,0.2868,-0.0467,0.1167,8.5278,-23.8876,-44.3592,46.89909020,-114.04011440,1.35058832,960.27557373,
31.193971,0.2211,0.3216,1.2627,0.8180,0.9790,2.2485,0.2805,0.1518,0.3463,8.3448,-26.4374,-43.1636,46.89909020,-114.04011440,1.35058832,960.27557373,
31.294259,0.0117,0.2563,0.9331,-1.0251,0.3929,-0.0232,0.3318,-0.1601,0.2742,8.2228,-28.4382,-41.4190,46.89909020,-114.04011440,1.35058832,960.27557373,
31.394602,0.0987,0.1060,0.9940,0.0758,-1.0983,0.0647,-0.5700,-0.0107,-0.0218,7.4054,-28.5480,-42.7976,46.89909020,-114.04011440,1.35058832,960.27557373,
31.494896,0.0782,0.2543,0.5928,-0.3629,-0.3184,-2.6648,0.5319,0.1785,0.2487,7.6616,-29.1458,-42.1754,46.89909020,-114.04011440,1.35058832,960.27557373,
31.595121,0.1497,0.2080,0.9754,0.2312,-0.0209,-0.3028,-0.3847,-0.1527,-0.0774,7.3322,-28.4504,-42.1510,46.89909020,-114.04011440,1.35058832,960.27557373,
31.695988,0.1055,0.3211,0.8238,-0.1504,0.5728,-0.9960,0.2040,-0.1968,-0.0720,6.4294,-27.8160,-42.2364,46.89909020,-114.04011440,1.35058832,960.27557373,
31.796350,0.2017,0.2121,1.2760,0.8696,0.2259,2.3293,-0.4385,-0.0392,-0.5361,5.0020,-27.2548,-43.5906,46.89909020,-114.04011440,1.35058832,960.27557373,
31.896422,0.2186,0.3105,0.8123,0.6356,0.1515,-0.0559,0.5018,0.1331,-0.3002,7.2468,-26.6692,-44.0176,46.89909020,-114.04011440,1.35058832,960.23742676,
31.996896,0.0674,0.0572,1.2182,0.3054,-0.9933,2.1244,-0.7529,0.4595,-0.6407,9.4550,-22.8872,-45.0912,46.89908660,-114.04012860,1.02264905,960.23742676,
32.097369,0.1815,0.2997,0.6936,0.8697,1.0932,-3.0227,-0.0560,-0.0981,-0.2277,10.6384,-22.3992,-45.1888,46.89908660,-114.04012860,1.02264905,960.23742676,
32.197515,0.1665,0.2917,0.9621,0.5508,1.2887,-0.9379,-0.3322,-0.1661,-0.4472,10.9678,-20.8864,-44.8228,46.89908660,-114.04012860,1.02264905,960.23742676,
32.297995,0.0628,0.2769,1.0614,-0.3381,0.9457,1.0118,0.3912,0.0109,-0.1203,10.6262,-21.3988,-45.3718,46.89908660,-114.04012860,1.02264905,960.23742676,
32.398324,0.1224,0.3734,1.1317,0.1517,1.3330,2.2242,0.6219,-0.1784,0.1527,8.9548,-23.2898,-44.2494,46.89908660,-114.04012860,1.02264905,960.23742676,
32.498713,-0.0458,0.1666,0.9607,-1.3623,-0.5935,1.1403,0.3903,-0.0738,0.0793,9.6380,-24.3146,-44.2738,46.89908660,-114.04012860,1.02264905,960.23742676,
32.599170,0.0580,0.1101,1.0265,-0.4906,-1.0699,0.5459,-0.3417,0.1509,0.0802,8.8206,-24.0218,-43.4198,46.89908660,-114.04012860,1.02264905,960.23742676,
32.699531,0.1271,0.2979,0.6515,-0.2427,0.7137,-3.4282,-0.1413,-0.2193,0.2945,8.7474,-24.7660,-43.8590,46.89908660,-114.04012860,1.02264905,960.23742676,
32.799782,0.1859,0.1615,1.0923,0.6367,-0.1131,1.0861,-0.0288,-0.0949,-0.0987,7.5274,-22.9116,-45.3840,46.89908660,-114.04012860,1.02264905,960.23742676,
32.900278,0.1185,0.2678,0.8032,0.1809,0.4735,-1.7083,0.3157,-0.1721,-0.3132,7.2346,-24.3878,-44.4812,46.89908660,-114.04012860,1.02264905,960.19000244,
33.000558,0.0837,0.2348,1.0489,-1.1033,0.6045,2.0912,0.1772,-0.1535,-0.1159,6.3806,-24.3756,-43.9322,46.89908340,-114.04013910,1.05486405,960.19000244,
33.101380,0.0323,0.0850,1.1598,-0.4817,-0.4679,1.9244,-0.6314,0.1344,-0.2469,7.9788,-23.0580,-46.0306,46.89908340,-114.04013910,1.05486405,960.19000244,
33.201914,0.1997,0.3142,0.7037,0.5360,1.0604,-1.6366,0.2189,-0.0601,0.3328,8.2838,-21.7282,-45.4694,46.89908340,-114.04013910,1.05486405,960.19000244,
33.302108,0.0642,0.3139,0.7886,-0.4596,1.7489,-2.6165,-0.4608,-0.0961,-0.1244,7.4298,-21.7282,-45.0302,46.89908340,-114.04013910,1.05486405,960.19000244,
33.402487,0.0891,0.1595,1.2130,-0.4902,0.2611,2.0733,0.1897,-0.0151,0.2636,7.0760,-20.0324,-45.7256,46.89908340,-114.04013910,1.05486405,960.19000244,
33.502600,0.0224,0.2616,1.1459,-0.5230,-0.0214,2.4456,0.5988,0.3216,0.6772,6.3440,-21.8624,-46.0916,46.89908340,-114.04013910,1.05486405,960.19000244,
33.602937,-0.0613,0.0500,1.1021,-0.6623,-1.3896,3.9483,0.9068,0.5230,0.5755,5.5754,-23.3020,-45.2864,46.89908340,-114.04013910,1.05486405,960.19000244,
33.703026,0.0202,0.1967,0.8167,-0.9088,0.2028,-2.0255,-0.3699,0.2657,0.6808,4.6726,-25.2906,-44.0542,46.89908340,-114.04013910,1.05486405,960.19000244,
33.803360,0.0012,0.1557,0.8025,-1.2911,-0.5192,-0.7061,0.1375,0.1873,0.8748,3.5990,-25.4126,-44.4812,46.89908340,-114.04013910,1.05486405,960.19000244,
33.903860,0.1242,0.0647,1.0945,0.2207,-0.5489,0.1783,-0.2910,0.1518,0.3785,2.8670,-24.7660,-45.0912,46.89908340,-114.04013910,1.05486405,960.03680420,
34.004466,0.2348,0.1583,0.8642,1.0881,-0.1004,-0.9526,0.2493,0.0755,0.1391,2.7816,-26.2178,-43.7492,46.89908050,-114.04015380,1.30129647,960.03680420,
34.104799,0.1588,0.2790,0.7054,-0.4853,0.2236,-0.2365,0.6569,0.0422,0.4007,2.7206,-28.4016,-42.6512,46.89908050,-114.04015380,1.30129647,960.03680420,
34.205281,-0.1389,0.0270,1.0906,-1.1322,-2.3485,4.5400,0.6233,0.4561,0.0811,5.4534,-26.3886,-43.6760,46.89908050,-114.04015380,1.30129647,960.03680420,
34.305482,0.1341,0.2003,0.8249,1.2736,0.5322,-2.3138,-0.3008,0.0194,-0.1333,5.3558,-27.7550,-42.9684,46.89908050,-114.04015380,1.30129647,960.03680420,
34.405853,0.0826,0.2588,0.6998,0.4447,0.4622,-2.3802,0.2411,0.1261,-0.0660,5.6486,-27.6452,-43.2856,46.89908050,-114.04015380,1.30129647,960.03680420,
34.506871,0.0247,0.2929,1.0752,0.0569,0.4473,0.4013,0.3262,0.1085,-0.0159,6.7222,-28.7066,-42.6878,46.89908050,-114.04015380,1.30129647,960.03680420,
34.607260,0.0290,0.2838,1.0187,0.2262,0.7370,1.5281,0.1391,0.3076,0.2498,6.5392,-30.1706,-41.6630,46.89908050,-114.04015380,1.30129647,960.03680420,
34.707352,0.0704,0.2024,0.9040,-0.9928,-0.5629,0.7618,0.1020,-0.5151,0.5974,4.9654,-30.6952,-41.2482,46.89908050,-114.04015380,1.30129647,960.03680420,
34.807723,0.0464,0.0892,0.9511,0.1443,-1.6198,1.2496,0.0000,0.4506,0.1571,3.6356,-28.9506,-42.7732,46.89908050,-114.04015380,1.30129647,960.03680420,
34.908041,0.2993,0.2287,0.8133,1.8849,0.5243,-2.8278,-0.5869,-0.1264,-0.2338,3.7210,-29.0360,-42.9928,46.89907420,-114.04016550,1.14095223,960.03680420,
35.008915,0.1444,0.1178,0.9050,0.2505,-1.0707,0.8358,0.3650,-0.0420,-0.4342,3.9162,-27.6452,-43.4808,46.89907420,-114.04016550,1.14095223,960.03680420,
35.108892,0.1873,0.2497,0.8941,0.4653,0.4191,-1.9019,-0.3107,-0.4640,-0.7962,4.8434,-28.0966,-43.3954,46.89907420,-114.04016550,1.14095223,960.03680420,
35.209981,0.0904,-0.0184,1.5566,0.9402,-1.0893,4.5800,-0.8140,0.4594,-1.2179,7.0150,-23.3264,-45.2864,46.89907420,-114.04016550,1.14095223,960.03680420,
35.310298,0.2092,0.1771,0.9140,1.0000,0.4488,-0.7247,-0.0140,0.0097,-0.5681,9.4306,-22.1430,-44.6398,46.89907420,-114.04016550,1.14095223,960.03680420,
35.410607,0.1778,0.1906,0.7439,1.0459,0.3847,-2.3189,-0.0702,-0.0964,-0.8107,10.6262,-21.4720,-44.7374,46.89907420,-114.04016550,1.14095223,960.03680420,
35.511388,0.1045,0.1263,0.9902,0.6914,-0.2133,0.1098,0.0096,0.1371,-0.7811,12.4074,-19.5566,-45.0058,46.89907420,-114.04016550,1.14095223,960.03680420,
35.611656,0.1338,0.2592,0.9760,0.5330,1.0668,-1.0567,-0.1179,-0.1795,-0.5265,13.9080,-18.8490,-45.1034,46.89907420,-114.04016550,1.14095223,960.03680420,
35.711859,0.0599,0.1750,1.0121,-0.2078,0.8295,0.5569,-0.2278,-0.4160,-0.4209,14.5424,-18.0560,-45.5182,46.89907420,-114.04016550,1.14095223,960.03680420,
35.812333,0.0362,0.2225,0.8367,-1.3142,0.1357,-1.1406,-0.0158,-0.4466,-0.0945,12.8344,-17.6900,-46.0184,46.89907420,-114.04016550,1.14095223,960.05987549,
35.912585,0.1122,0.0434,1.2284,0.4932,-1.2565,2.5904,0.0287,0.3735,-0.5140,11.7608,-16.3602,-47.1408,46.89906750,-114.04017470,1.14041519,960.05987549,
36.012982,0.0947,0.2583,0.5905,0.0991,0.3739,-3.5396,0.3223,0.1077,-0.3501,14.8352,-17.9340,-45.5060,46.89906750,-114.04017470,1.14041519,960.05987549,
36.113317,0.1537,0.1769,0.8011,0.8517,-0.1400,-2.1513,-0.0826,-0.2193,-0.6904,15.4086,-17.8852,-46.0428,46.89906750,-114.04017470,1.14041519,960.05987549,
36.213793,0.1094,0.1712,0.9228,0.2756,-0.1864,-1.1107,0.0539,-0.5111,-0.8896,15.1402,-16.6164,-45.1522,46.89906750,-114.04017470,1.14041519,960.05987549,
36.314307,0.0182,0.2755,1.1242,-0.4383,0.1601,0.8433,-0.6101,-0.3503,-1.0542,14.2740,-13.8958,-46.6650,46.89906750,-114.04017470,1.14041519,960.05987549,
36.414670,-0.1997,0.0356,1.3102,-1.0955,-1.5452,5.7938,-0.4188,0.3246,-0.6101,15.5306,-6.2830,-48.0436,46.89906750,-114.04017470,1.14041519,960.03619385,
36.515085,0.0238,0.3176,0.6287,-0.7081,2.0307,-3.5853,-0.1801,-0.5355,0.3491,14.9450,-6.6978,-47.2018,46.89906610,-114.04017650,1.09827483,960.03619385,
36.615713,0.0639,0.2203,0.9154,-0.6180,1.3529,-0.8095,0.4581,-0.5407,0.3533,11.4436,-6.6490,-49.0806,46.89906610,-114.04017650,1.09827483,960.03619385,
36.715828,0.1582,0.1949,1.2129,-0.2988,0.7403,1.2078,0.1267,-0.0734,0.2083,8.9426,-9.2842,-48.7146,46.89906610,-114.04017650,1.09827483,960.03619385,
36.816150,0.1220,-0.0551,1.7129,0.4989,-1.4883,6.8648,0.4939,0.3464,0.0831,9.6258,-10.2236,-49.0684,46.89906610,-114.04017650,1.09827483,960.01715088,
36.916632,0.0612,0.0554,0.9826,-0.8543,-1.4847,-0.3366,0.3554,0.1797,0.5241,10.6384,-14.7498,-47.2994,46.89906880,-114.04018770,1.22949469,960.01715088,
37.016831,0.0646,0.1172,0.5970,-0.0671,-1.5577,-1.9069,0.7761,0.5135,0.7415,12.3220,-18.0194,-46.0306,46.89906880,-114.04018770,1.22949469,960.01715088,
37.117681,0.1995,0.1817,0.6560,0.8122,-0.3668,-3.7815,-0.3231,-0.1556,0.3867,11.0898,-20.4228,-45.2376,46.89906880,-114.04018770,1.22949469,960.01715088,
37.217550,0.1487,0.1007,0.9216,0.2927,-2.0035,1.4117,0.3849,-0.1314,0.2448,10.5042,-19.0442,-46.1526,46.89906880,-114.04018770,1.22949469,960.01715088,
37.318114,0.2982,0.2077,0.9510,1.8024,0.1416,-0.9817,-0.2665,-0.1700,-0.4674,9.2842,-19.9104,-46.3722,46.89906880,-114.04018770,1.22949469,960.01715088,
37.418440,0.2384,0.3445,0.9828,-0.3224,1.1286,-1.1446,-0.9894,-0.0472,-0.4168,10.0162,-17.8242,-46.7504,46.89906880,-114.04018770,1.22949469,960.01715088,
37.518636,-0.3042,0.1306,1.0195,-3.3366,-1.0726,2.7218,-0.3056,0.3257,-0.1142,11.7120,-12.0902,-47.8606,46.89906880,-114.04018770,1.22949469,960.01715088,
37.619000,0.0798,0.1997,0.9173,-0.1080,0.6231,-0.3528,0.0248,-0.3425,0.6887,11.0166,-11.2362,-47.5190,46.89906880,-114.04018770,1.22949469,960.01715088,
37.719426,0.0803,0.2454,0.7644,0.0511,1.2371,-2.2856,0.2364,0.0784,0.5884,10.0284,-12.8100,-47.4458,46.89906880,-114.04018770,1.22949469,960.01715088,
37.819744,0.0655,0.1764,1.0151,0.2094,0.2061,-0.4379,0.1592,0.3878,0.3206,9.5282,-14.1398,-47.7996,46.89906880,-114.04018770,1.22949469,959.90667725,
37.919917,0.1646,0.0837,1.2587,0.4840,-0.9374,3.5608,0.6163,0.0309,0.6481,10.4554,-16.0430,-46.7016,46.89906860,-114.04020570,1.23567939,959.90667725,
38.020360,0.1500,0.0965,0.9930,-1.3463,-0.5065,-1.5325,-0.6063,-0.2354,1.0448,11.0044,-19.0686,-45.2010,46.89906860,-114.04020570,1.23567939,959.90667725,
38.120512,0.1750,0.0634,0.8801,0.6668,-1.6697,0.5195,0.0895,0.3801,0.6027,9.3330,-19.3492,-46.2502,46.89906860,-114.04020570,1.23567939,959.90667725,
38.221258,0.1759,0.1760,0.7481,1.2834,-0.1149,-3.2662,-0.1281,-0.1775,-0.1120,9.5770,-19.8738,-46.0550,46.89906860,-114.04020570,1.23567939,959.90667725,
38.321579,0.1241,0.1173,0.9936,0.9041,-0.8820,0.7201,0.4612,-0.0405,-0.2499,8.9304,-19.9226,-44.9936,46.89906860,-114.04020570,1.23567939,959.90667725,
38.422150,0.2010,0.1897,1.2228,0.0504,0.2632,0.9099,-0.5168,-0.6161,-0.4571,8.9182,-21.0328,-45.5548,46.89906860,-114.04020570,1.23567939,959.90667725,
38.523101,0.0185,0.1919,0.8333,-0.4050,-0.3862,-0.8408,0.5095,0.3710,-0.1538,10.5652,-19.5810,-45.8476,46.89906860,-114.04020570,1.23567939,959.90667725,
38.623459,0.1880,0.2496,0.7655,0.8921,0.0062,-1.6638,0.3535,-0.1186,0.2451,8.6864,-21.6794,-45.0424,46.89906860,-114.04020570,1.23567939,959.90667725,
38.723715,0.1421,0.2818,0.7015,0.6538,0.2854,-2.4718,0.3628,-0.0101,0.1139,9.5648,-22.6066,-45.2864,46.89906860,-114.04020570,1.23567939,959.90667725,
38.824129,0.0663,0.2917,0.6931,0.2300,0.2680,-2.8596,-0.1021,0.2466,-0.0312,10.7360,-23.8266,-44.1640,46.89906860,-114.04020570,1.23567939,959.89050293,
38.924536,-0.0253,0.4235,0.6326,-0.5447,1.1520,-3.0446,0.2130,0.1930,0.3117,11.3216,-25.0344,-43.6760,46.89906390,-114.04022140,1.18967557,959.89050293,
39.024560,-0.0197,0.4168,0.9943,-0.1489,1.1455,1.0988,0.6218,0.1181,0.4085,11.5656,-24.6318,-43.0294,46.89906390,-114.04022140,1.18967557,959.89050293,
39.125193,-0.0641,0.3798,0.9098,-0.9513,-0.3745,4.4165,0.8120,-0.3084,0.6682,10.4676,-26.3032,-43.0660,46.89906390,-114.04022140,1.18967557,959.89050293,
39.225174,-0.0197,0.1104,1.3293,-0.9003,-1.1647,4.1349,-0.4303,0.0957,0.3200,8.6620,-22.9726,-45.6158,46.89906390,-114.04022140,1.18967557,959.89050293,
39.325642,0.1161,0.2590,0.7008,0.5820,0.5438,-2.5915,0.0135,0.0568,0.2298,9.1256,-22.3626,-44.5422,46.89906390,-114.04022140,1.18967557,959.89050293,
39.426176,0.0490,0.2443,0.8984,-0.1341,0.2360,-0.9064,0.2878,-0.4548,-0.0750,7.5884,-23.4362,-44.6642,46.89906390,-114.04022140,1.18967557,959.89050293,
39.526615,0.1616,0.1675,1.3241,0.4782,-0.6840,3.8605,0.2651,-0.0650,-0.2789,5.3314,-24.0462,-44.7740,46.89906390,-114.04022140,1.18967557,959.89050293,
39.626717,0.1910,0.0913,1.2660,1.0196,-1.4710,3.1415,0.0523,0.2791,-0.4027,7.2468,-24.0340,-44.9936,46.89906390,-114.04022140,1.18967557,959.89050293,
39.727387,0.0735,0.2733,0.5071,0.1069,-0.1223,-4.1886,0.2241,0.1162,-0.2232,8.2106,-25.6322,-43.1392,46.89906390,-114.04022140,1.18967557,959.89050293,
39.828022,0.0298,0.2784,0.6844,-0.6189,-0.1636,-2.7762,-0.0924,-0.1361,-0.1391,7.9300,-25.4004,-44.0908,46.89906390,-114.04022140,1.18967557,959.93792725,
39.928438,0.0655,0.2885,1.0308,-0.2630,0.0616,0.5029,-0.0722,0.0955,-0.0507,8.0520,-24.8514,-44.6032,46.89905970,-114.04023710,1.13218939,959.93792725,
40.028370,0.1547,0.3276,1.2804,0.4875,0.4742,2.6264,-0.2377,0.1247,0.2999,8.3570,-26.3398,-42.8464,46.89905970,-114.04023710,1.13218939,959.93792725,
40.129033,0.0385,0.4654,0.9851,-0.3359,1.1287,0.0645,0.0536,0.4432,0.5824,8.4668,-28.7920,-42.1754,46.89905970,-114.04023710,1.13218939,959.93792725,
40.228900,0.1213,0.1887,0.9842,0.3678,-1.2727,0.5193,-0.0849,-0.0882,0.2374,7.7226,-29.7680,-41.6630,46.89905970,-114.04023710,1.13218939,959.93792725,
40.329568,0.0991,0.2496,0.6349,0.3809,-0.4692,-2.8815,-0.2864,0.5720,0.2566,8.9670,-28.6334,-41.8582,46.89905970,-114.04023710,1.13218939,959.93792725,
40.429743,0.1274,0.2260,0.8640,0.7633,-0.1603,-1.2333,-0.3085,-0.1952,0.0773,9.3818,-26.7790,-42.7610,46.89905970,-114.04023710,1.13218939,959.93792725,
40.530055,0.0591,0.3116,0.8311,-0.0565,0.4465,-1.4806,0.0162,-0.1943,-0.0827,8.2350,-27.9136,-42.6756,46.89905970,-114.04023710,1.13218939,959.93792725,
40.630250,0.0578,0.2479,1.1403,-0.1133,0.1997,2.1732,-0.1764,-0.1361,-0.1675,8.3692,-25.9860,-43.4686,46.89905970,-114.04023710,1.13218939,959.93792725,
40.730731,0.1792,0.0764,1.2572,1.3248,-1.0830,3.2542,-0.0252,0.1149,-0.2332,8.9548,-23.3752,-44.0298,46.89905970,-114.04023710,1.13218939,959.93792725,
40.830798,0.1290,0.2854,0.6425,0.8305,0.6531,-2.9822,0.0336,0.0387,-0.1317,9.3452,-24.5220,-43.9688,46.89905970,-114.04023710,1.13218939,959.90667725,
40.931607,-0.0295,0.2606,0.7095,-0.5425,0.6594,-2.7237,-0.1641,-0.0106,-0.2908,10.3944,-23.2288,-44.5666,46.89905560,-114.04025310,1.17824483,959.90667725,
41.032348,-0.0156,0.2749,1.0232,-0.4986,0.8454,0.1230,0.0919,-0.0622,-0.0499,10.5774,-22.2040,-44.5422,46.89905560,-114.04025310,1.17824483,959.90667725,
41.132717,0.0355,0.3472,1.2517,-0.1273,1.0985,2.5679,0.1895,0.1157,0.4051,10.5286,-23.9486,-44.4934,46.89905560,-114.04025310,1.17824483,959.90667725,
41.233241,-0.0868,0.1458,1.2309,-0.7610,-0.7144,3.5710,0.6756,0.3208,0.2465,9.9430,-24.4488,-43.4320,46.89905560,-114.04025310,1.17824483,959.90667725,
41.333341,-0.0326,0.1947,0.7901,-0.5466,-0.4559,-1.4810,0.0681,0.1794,0.4474,10.0284,-26.9864,-42.8708,46.89905560,-114.04025310,1.17824483,959.90667725,
41.433851,0.0223,0.2122,0.6845,-0.2872,-0.5389,-2.5537,0.0505,-0.0334,0.5766,8.8572,-27.1206,-43.1880,46.89905560,-114.04025310,1.17824483,959.90667725,
41.534239,0.1195,0.2414,0.9464,0.6067,0.0286,-0.5444,-0.1830,-0.4809,0.0570,6.3440,-27.3768,-43.0660,46.89905560,-114.04025310,1.17824483,959.90667725,
41.634509,0.1497,0.3081,1.0313,0.3248,0.5918,0.7448,-0.0626,-0.0502,-0.1392,4.8922,-27.4500,-43.2734,46.89905560,-114.04025310,1.17824483,959.90667725,
41.734810,0.1827,0.2486,1.1038,0.5238,0.1468,1.1359,-0.2559,0.1870,-0.2235,6.2830,-25.7542,-43.4442,46.89905560,-114.04025310,1.17824483,959.90667725,
41.835113,0.1989,0.1437,1.1529,1.1267,-0.5119,1.3894,-0.2465,0.0580,-0.1668,7.6128,-25.5346,-44.6154,46.89905560,-114.04025310,1.17824483,959.90667725,
41.935438,0.0624,0.2430,0.5423,0.0423,0.0170,-3.7336,0.2318,0.1346,0.0006,8.4302,-25.3394,-43.3466,46.89905560,-114.04025310,1.17824483,959.81536865,
42.036141,0.0333,0.2434,0.8561,-0.1754,0.2124,-1.3455,-0.0391,0.0883,0.0206,8.9426,-26.1080,-43.4808,46.89904850,-114.04026930,1.23008645,959.81536865,
42.136501,0.0652,0.3381,1.0161,0.2818,0.9562,0.1128,0.0899,0.0319,0.0925,8.8084,-26.5838,-43.4930,46.89904850,-114.04026930,1.23008645,959.81536865,
42.236718,-0.0899,0.3366,1.1535,-0.5369,1.4815,2.9679,0.1192,0.6426,0.0594,9.6502,-25.6688,-43.4686,46.89904850,-114.04026930,1.23008645,959.81536865,
42.336933,0.0632,0.1751,0.9982,0.1410,-0.6526,1.2257,0.6355,-0.4259,0.4846,9.9430,-26.9132,-42.8708,46.89904850,-114.04026930,1.23008645,959.81536865,
42.437383,0.0459,0.1586,0.7694,0.2321,-1.0784,-1.2687,0.1700,0.3798,0.1939,9.3818,-28.0478,-42.1632,46.89904850,-114.04026930,1.23008645,959.81536865,
42.537609,0.0055,0.2020,0.7228,-0.2201,-0.4622,-2.8745,-0.3076,-0.1597,0.1718,9.4550,-28.4138,-42.2730,46.89904850,-114.04026930,1.23008645,959.81536865,
42.637699,0.0797,0.2229,0.9575,0.4786,-0.2720,0.1335,0.1035,-0.1033,-0.0021,8.1496,-27.6452,-42.9806,46.89904850,-114.04026930,1.23008645,959.81536865,
42.738029,0.0746,0.2152,1.2394,0.6817,-0.5898,3.0007,0.1260,0.2270,-0.1336,7.2224,-27.2914,-42.9684,46.89904850,-114.04026930,1.23008645,959.81536865,
42.838501,0.2347,0.1453,1.3385,2.1422,-0.3576,2.9473,-0.7189,0.0549,-0.3998,7.8568,-26.4130,-43.5906,46.89904850,-114.04026930,1.23008645,959.79626465,
42.938293,0.1421,0.2481,0.7743,0.9179,0.3147,-1.7396,0.0108,-0.1538,-0.0036,8.8206,-26.2178,-43.7980,46.89904070,-114.04028150,1.46997285,959.79626465,
43.038568,0.0689,0.2528,0.6222,0.1456,0.3874,-3.4127,0.0077,-0.1005,-0.1508,8.2960,-25.8030,-43.2490,46.89904070,-114.04028150,1.46997285,959.79626465,
43.138885,0.0434,0.2749,0.9304,-0.3059,0.4567,-0.9679,0.0865,-0.0897,-0.0170,8.0276,-25.4858,-43.7736,46.89904070,-114.04028150,1.46997285,959.79626465,
43.239761,0.1028,0.2469,1.2705,0.4611,0.3142,2.8911,0.1293,0.7077,0.1565,8.2472,-26.4496,-43.0538,46.89904070,-114.04028150,1.46997285,959.79626465,
43.339713,0.0207,0.1859,1.2585,0.5791,0.0105,2.4966,-0.0034,-0.3213,0.0113,11.2362,-26.5716,-42.0168,46.89904070,-114.04028150,1.46997285,959.79626465,
43.440152,0.0664,0.1479,0.7617,0.2700,-0.7526,-1.7652,-0.0870,-0.1495,0.2606,9.3452,-27.4134,-41.9314,46.89904070,-114.04028150,1.46997285,959.79626465,
43.540518,-0.0035,0.1871,0.6120,-0.3503,-0.4773,-3.2511,0.0029,0.0022,0.3134,8.5888,-28.1454,-43.0050,46.89904070,-114.04028150,1.46997285,959.79626465,
43.640839,0.1677,0.2216,1.0157,0.9482,0.1824,-0.0467,-0.2020,-0.2161,0.0905,7.3444,-27.0840,-42.6512,46.89904070,-114.04028150,1.46997285,959.79626465,
43.740988,0.1426,0.3086,0.9385,0.7032,0.8467,-0.7504,0.0170,-0.2336,-0.2280,6.9296,-27.3280,-43.1758,46.89904070,-114.04028150,1.46997285,959.79626465,
43.841635,0.1329,0.1714,1.2579,0.6279,-0.0695,1.9425,-0.7005,0.1582,-0.3024,7.2224,-25.9250,-43.4564,46.89904070,-114.04028150,1.46997285,959.81536865,
43.941689,0.1429,0.1594,0.9714,0.6784,-0.4859,0.3435,0.2538,-0.0437,0.2712,7.9056,-25.5956,-44.4080,46.89903080,-114.04029660,1.32941723,959.81536865,
44.042223,0.1192,0.1886,0.7159,0.7324,-0.2717,-2.2156,0.1654,0.0463,-0.0374,7.3078,-26.2788,-42.9440,46.89903080,-114.04029660,1.32941723,959.81536865,
44.142243,0.0969,0.2557,0.7629,0.3987,0.3082,-2.3505,0.0509,0.1281,-0.1481,8.2228,-26.8156,-42.6390,46.89903080,-114.04029660,1.32941723,959.81536865,
44.242855,0.0104,0.3051,0.9658,-0.4361,0.5429,-0.2633,0.1694,-0.0421,0.1931,8.0764,-27.6452,-42.3462,46.89903080,-114.04029660,1.32941723,959.81536865,
44.343473,0.1136,0.3014,0.9921,0.2849,1.2169,0.8513,-0.1404,-0.0071,0.3400,7.5884,-27.8648,-41.8216,46.89903080,-114.04029660,1.32941723,959.81536865,
44.443976,0.0411,0.2086,0.8794,-0.5294,-0.3120,0.1732,0.3260,-0.0222,0.3553,7.0516,-27.0352,-42.8586,46.89903080,-114.04029660,1.32941723,959.81536865,
44.544178,0.0037,0.1055,0.8282,-0.3356,-0.8192,-1.4485,-0.4010,0.0245,-0.0982,6.9174,-26.4008,-42.7244,46.89903080,-114.04029660,1.32941723,959.81536865,
44.644710,0.0561,0.2201,0.7746,-0.0617,0.3033,-2.3459,-0.2012,-0.1428,0.1652,7.1492,-25.6688,-43.7736,46.89903080,-114.04029660,1.32941723,959.81536865,
44.745013,0.0983,0.2121,0.9669,0.3950,0.3209,0.1562,0.2707,-0.0048,-0.0270,6.1854,-25.4980,-44.0786,46.89903080,-114.04029660,1.32941723,959.81536865,
44.845295,0.1494,0.1720,1.2995,0.6616,0.3199,2.5786,-0.1564,-0.0503,-0.2677,5.9048,-25.5224,-43.7614,46.89903080,-114.04029660,1.32941723,959.81536865,
44.945666,0.1234,0.0975,1.2164,0.6748,-0.5987,2.2264,-0.0417,0.2328,-0.2656,6.3074,-25.3882,-43.7492,46.89902360,-114.04031150,1.41280341,959.81536865,
45.046225,0.0758,0.1812,0.8925,0.3480,-0.0964,-0.7074,-0.0702,0.0371,-0.1147,6.9174,-26.0592,-43.7736,46.89902360,-114.04031150,1.41280341,959.81536865,
45.146797,0.0207,0.2647,0.6706,-0.1115,0.4472,-2.6286,0.2999,0.2277,-0.1067,7.8080,-25.9494,-43.2490,46.89902360,-114.04031150,1.41280341,959.81536865,
45.247037,0.0205,0.2330,0.9575,-0.1220,0.4293,-0.6374,0.0022,0.0392,0.0060,8.6254,-26.5838,-42.7488,46.89902360,-114.04031150,1.41280341,959.81536865,
45.347349,0.0498,0.2286,1.1504,0.0717,0.1840,1.6510,0.1707,-0.0665,0.2517,8.8450,-27.3890,-42.9806,46.89902360,-114.04031150,1.41280341,959.81536865,
45.448291,-0.0017,0.3727,0.7745,-0.0672,0.9820,-1.1013,0.2443,-0.0010,0.3117,9.1866,-28.4260,-41.3214,46.89902360,-114.04031150,1.41280341,959.81536865,
45.548622,0.0823,0.2100,0.9583,0.2451,-0.6439,1.0234,0.2752,-0.2631,0.3107,7.2712,-28.0966,-42.3584,46.89902360,-114.04031150,1.41280341,959.81536865,
45.648801,0.0374,0.1636,0.8639,0.1932,-0.6000,-0.4323,-0.1047,0.2206,-0.1514,6.7344,-27.5110,-42.5414,46.89902360,-114.04031150,1.41280341,959.81536865,
45.749904,0.0587,0.2604,0.7956,0.0466,0.4251,-2.3066,-0.2031,-0.2370,-0.1859,7.4420,-26.8156,-43.3832,46.89902360,-114.04031150,1.41280341,959.81536865,
45.850195,0.0557,0.2343,0.9737,-0.0135,0.1625,0.2435,0.1282,-0.1266,-0.2829,7.2346,-25.7420,-43.4564,46.89902360,-114.04031150,1.41280341,959.78588867,
45.950730,0.1085,0.1662,1.2624,0.2772,0.0904,2.8885,0.0471,0.0271,-0.3806,7.3688,-25.2784,-43.8712,46.89901580,-114.04032730,1.37523949,959.78588867,
46.051195,0.0502,0.1254,1.0031,0.2848,-0.9342,1.2353,0.2507,0.1276,0.0787,9.1256,-24.9002,-43.6516,46.89901580,-114.04032730,1.37523949,959.78588867,
46.151589,0.0716,0.2160,0.7786,0.5453,0.0828,-1.6282,0.0520,0.0747,0.0827,8.9670,-25.6566,-43.8834,46.89901580,-114.04032730,1.37523949,959.78588867,
46.253703,0.0332,0.2421,0.7119,0.0589,0.2045,-2.3592,0.1369,-0.0137,0.1208,9.6258,-24.9246,-42.9196,46.89901580,-114.04032730,1.37523949,959.78588867,
46.354720,0.0231,0.2860,0.8974,0.0206,0.3448,-0.5668,0.3640,0.0773,0.1407,9.8820,-26.7180,-42.1266,46.89901580,-114.04032730,1.37523949,959.78588867,
46.454493,-0.0227,0.2912,1.2596,0.2350,1.0948,3.2314,-0.4857,1.0752,0.1587,11.0776,-25.9616,-42.7488,46.89901580,-114.04032730,1.37523949,959.78588867,
46.554252,-0.1289,0.1492,0.8967,-1.1525,-0.8263,0.8349,0.5446,-0.6784,0.2810,11.5656,-25.8274,-42.9562,46.89901580,-114.04032730,1.37523949,959.78588867,
46.654848,0.0277,0.1208,1.0489,0.0709,-0.6637,0.4247,-0.3487,-0.1562,0.0988,8.8816,-25.4858,-43.7736,46.89901580,-114.04032730,1.37523949,959.78588867,
46.754421,0.0870,0.2723,0.6615,0.3975,0.5881,-3.2709,0.0780,0.0079,-0.0661,8.1008,-25.6566,-43.6760,46.89901580,-114.04032730,1.37523949,959.78588867,
46.854681,0.0886,0.2424,0.9539,0.3184,0.3550,-0.7262,0.1525,-0.2507,-0.1849,7.7226,-25.6932,-43.4564,46.89901580,-114.04032730,1.37523949,959.73211670,
46.954987,0.0876,0.2481,1.1603,0.2807,0.4143,0.6862,-0.0095,-0.4631,-0.5204,8.0642,-26.2056,-43.3710,46.89900830,-114.04034170,1.30944228,959.73211670,
47.054875,0.0570,0.1334,1.2883,0.2997,-0.6264,3.3465,-0.0191,0.2498,-0.1850,8.7840,-25.5834,-43.7858,46.89900830,-114.04034170,1.30944228,959.73211670,
47.155118,0.0025,0.2106,0.8240,-0.3412,-0.3108,-1.0735,-0.0134,-0.0062,0.0214,8.5156,-26.6082,-43.2734,46.89900830,-114.04034170,1.30944228,959.73211670,
47.255154,0.0290,0.2662,0.6603,-0.1554,0.0695,-2.6152,0.0154,0.1492,0.1465,8.8938,-26.6570,-43.2856,46.89900830,-114.04034170,1.30944228,959.73211670,
47.355203,0.0214,0.2428,1.0132,0.0231,0.3848,-0.5981,-0.0674,-0.0322,0.0487,9.5038,-26.1446,-43.9078,46.89900830,-114.04034170,1.30944228,959.73211670,
47.456148,0.0491,0.3271,0.9863,0.0533,0.8674,-0.1160,0.1763,-0.3154,0.1864,8.3936,-27.0718,-42.8708,46.89900830,-114.04034170,1.30944228,959.73211670,
47.556439,0.0317,0.0126,1.6751,0.7895,-1.2132,6.1735,-0.3260,-0.0536,-0.0986,7.3932,-26.0104,-44.2006,46.89900830,-114.04034170,1.30944228,959.73211670,
47.656998,0.0833,0.2334,0.8730,0.8035,0.1094,-1.1647,-0.1831,0.2469,0.1606,6.0512,-27.4256,-43.4930,46.89900830,-114.04034170,1.30944228,959.73211670,
47.757166,0.0238,0.2116,0.6616,0.1360,-0.2121,-2.6760,0.0149,0.1462,-0.0051,6.6734,-27.9868,-43.2002,46.89900830,-114.04034170,1.30944228,959.73211670,
47.857399,0.1266,0.2164,0.9310,0.6460,0.1692,-1.0318,-0.2722,-0.0168,-0.0224,6.1854,-26.7668,-43.6882,46.89900830,-114.04034170,1.30944228,959.75750732,
47.957958,0.0959,0.3039,0.9745,0.3910,0.9226,-0.4531,-0.1396,-0.1609,-0.2615,6.5514,-25.8152,-43.7736,46.89900000,-114.04035630,1.22693455,959.75750732,
48.058281,0.1278,0.1572,1.1987,0.6377,0.0720,1.9904,-0.3883,-0.1102,-0.4480,6.9418,-24.3268,-44.5788,46.89900000,-114.04035630,1.22693455,959.75750732,
48.158766,0.1114,0.0676,1.1435,0.2606,-0.9545,1.8777,0.0509,-0.0463,-0.1428,7.7348,-22.8750,-44.7496,46.89900000,-114.04035630,1.22693455,959.75750732,
48.259035,0.0574,0.1863,0.6877,0.2431,-0.1990,-1.9795,0.4309,-0.0324,0.0196,7.5274,-24.1804,-44.8960,46.89900000,-114.04035630,1.22693455,959.75750732,
48.359527,0.0218,0.2545,0.8136,-0.0909,0.6597,-2.4500,-0.0951,-0.1800,-0.0914,7.7470,-25.0710,-44.5056,46.89900000,-114.04035630,1.22693455,959.75750732,
48.459973,0.0045,0.2743,1.0632,-0.3157,0.6302,0.6026,0.2811,0.1595,0.0997,6.6490,-25.5468,-44.6154,46.89900000,-114.04035630,1.22693455,959.75750732,
48.560515,0.2384,0.2198,1.1487,1.2007,0.7855,1.6701,-0.1072,0.2971,0.1546,7.9300,-26.8522,-43.1758,46.89900000,-114.04035630,1.22693455,959.75750732,
48.660580,-0.0529,0.1948,0.8155,-1.2290,-0.7251,-0.5246,0.1078,0.1384,0.2126,8.3692,-27.0962,-43.9322,46.89900000,-114.04035630,1.22693455,959.75750732,
48.761275,-0.0496,0.1471,0.8025,-0.1929,-0.5465,-2.1482,-0.5370,0.0999,0.1272,9.4184,-26.0592,-43.6882,46.89900000,-114.04035630,1.22693455,959.75750732,
48.861413,0.0968,0.2162,0.8160,0.5097,0.3859,-2.4090,-0.2874,-0.4469,0.2568,7.8812,-25.5224,-45.4694,46.89900000,-114.04035630,1.22693455,959.75750732,
48.961624,0.1962,0.2280,1.0633,1.4337,0.3426,1.1645,0.1736,-0.1543,-0.3169,5.3192,-24.0584,-45.5182,46.89900000,-114.04035630,1.22693455,959.76507568,
49.062083,0.1873,0.2654,1.1058,0.8901,0.8761,0.8180,-0.5061,-0.0647,-0.9799,5.6120,-24.1194,-45.0912,46.89899160,-114.04037120,1.30064976,959.76507568,
49.162228,-0.2011,0.0536,1.1253,-1.8960,-1.1639,2.4854,-0.0888,0.2767,-0.7658,9.0524,-20.2154,-47.0188,46.89899160,-114.04037120,1.30064976,959.76507568,
49.263370,0.0002,0.1033,0.9215,0.2810,-0.0691,-0.9686,-0.0905,-0.2316,0.1446,9.9064,-19.2028,-46.5674,46.89899160,-114.04037120,1.30064976,959.76507568,
49.363586,0.0874,0.2309,0.7219,0.4269,0.7924,-3.4154,0.0689,-0.0678,0.3731,8.3082,-21.2036,-46.4088,46.89899160,-114.04037120,1.30064976,959.76507568,
49.464439,0.0541,0.2444,0.9668,0.4639,0.6485,-0.5995,0.2458,0.2605,0.2740,7.8446,-22.3382,-45.7988,46.89899160,-114.04037120,1.30064976,959.76507568,
49.564449,0.0400,0.2513,1.1449,0.4849,0.3614,2.1411,0.0872,0.5303,0.3024,9.0280,-23.3020,-45.5182,46.89899160,-114.04037120,1.30064976,959.76507568,
49.664774,0.0032,0.0764,1.1810,0.1083,-1.3755,3.2616,0.3942,0.0555,0.5480,9.6380,-23.0458,-44.8838,46.89899160,-114.04037120,1.30064976,959.76507568,
49.765225,0.1138,0.2044,0.8030,1.1662,0.1241,-1.9669,-0.2328,-0.1037,0.3459,7.6982,-25.4492,-45.2498,46.89899160,-114.04037120,1.30064976,959.74133301,
49.865512,0.0927,0.2154,0.7389,0.3999,0.1143,-2.3500,0.0391,-0.1834,0.3031,6.7466,-25.3760,-45.4572,46.89898360,-114.04038280,1.38088989,959.74133301,
49.966047,0.1001,0.2128,0.9160,0.7895,0.0690,-1.0189,0.1456,-0.1414,-0.1189,5.7462,-25.8396,-45.4572,46.89898360,-114.04038280,1.38088989,959.74133301,
50.066858,0.0689,0.1613,1.2629,1.0857,-0.9380,2.6048,0.1323,0.2175,-0.3190,5.6974,-25.4736,-44.9204,46.89898360,-114.04038280,1.38088989,959.74133301,
50.166872,0.1160,-0.0234,1.5790,1.9998,-1.3846,4.6870,-0.5914,0.2816,-0.3930,6.7344,-24.1072,-46.0550,46.89898360,-114.04038280,1.38088989,959.74133301,
50.267187,0.1924,0.2523,0.7072,1.6805,0.5054,-2.8133,-0.0912,0.0143,0.0451,7.5640,-24.9124,-45.0302,46.89898360,-114.04038280,1.38088989,959.74133301,
50.367551,-0.0205,0.2418,0.7211,-0.2180,0.4841,-3.2854,0.0533,-0.0304,-0.0611,7.8202,-25.2540,-45.1400,46.89898360,-114.04038280,1.38088989,959.74133301,
50.468061,0.0209,0.1824,1.1747,0.2566,-0.1688,1.3938,0.4991,0.2240,0.1705,8.1130,-25.2174,-45.0424,46.89898360,-114.04038280,1.38088989,959.74133301,
50.568321,0.0117,0.4071,1.0235,0.3628,0.7772,0.6869,0.2665,0.3171,0.4644,7.9422,-29.0482,-43.0294,46.89898360,-114.04038280,1.38088989,959.74133301,
50.668694,-0.1157,0.1106,1.1571,-0.7117,-1.3200,3.0294,0.1394,-0.0287,0.3896,8.1252,-27.7550,-43.6272,46.89898360,-114.04038280,1.38088989,959.74133301,
50.768830,0.0830,0.1214,0.8997,0.8497,-0.8004,-0.8805,-0.5836,0.1301,0.2243,6.7710,-27.8160,-44.0420,46.89898360,-114.04038280,1.38088989,959.74133301,
50.869516,0.1080,0.2070,0.7618,0.7643,-0.2774,-2.2220,0.0527,-0.1089,0.2754,5.9414,-27.3524,-44.1274,46.89898360,-114.04038280,1.38088989,959.69970703,
50.969604,0.0821,0.2202,0.9526,0.8739,-0.0674,-0.4565,0.2472,-0.1369,-0.2194,4.6482,-28.1088,-43.1880,46.89897290,-114.04039850,1.41402137,959.69970703,
51.069891,0.0183,0.1846,1.2705,0.3409,-0.5495,2.4523,0.3006,0.0911,-0.4492,4.2212,-29.6338,-44.0786,46.89897290,-114.04039850,1.41402137,959.69970703,
51.170706,0.0091,0.2066,1.0529,0.7204,0.2196,0.9271,-0.3201,0.4772,-0.4248,7.6250,-29.3532,-43.0294,46.89897290,-114.04039850,1.41402137,959.69970703,
51.271016,0.0404,0.1985,0.8409,0.0607,-0.4950,-0.9765,-0.2961,0.0669,0.2774,9.2232,-28.4626,-43.6516,46.89897290,-114.04039850,1.41402137,959.69970703,
51.371136,-0.0340,0.2260,0.6577,0.0246,-0.1313,-2.5712,-0.0013,0.0454,0.4688,8.9548,-28.2186,-43.6516,46.89897290,-114.04039850,1.41402137,959.69970703,
51.471637,0.0685,0.2547,1.0643,0.6124,0.6452,-0.4189,-0.0887,-0.2059,0.4555,6.6734,-27.8160,-43.8346,46.89897290,-114.04039850,1.41402137,959.69970703,
51.572119,0.0405,0.3226,1.1978,0.4033,0.5192,2.1915,0.2832,0.0728,0.4103,5.7096,-28.9384,-44.3836,46.89897290,-114.04039850,1.41402137,959.69970703,
51.672533,-0.1340,0.1257,1.2022,-0.4140,-1.0717,4.3399,0.6905,0.1799,0.3891,5.2826,-29.7924,-43.4564,46.89897290,-114.04039850,1.41402137,959.69970703,
51.773039,-0.0301,0.1370,0.8890,-0.2310,-0.8700,-0.8461,-0.0283,0.0537,0.5402,3.9894,-31.9030,-41.8094,46.89897290,-114.04039850,1.41402137,959.69970703,
51.873224,0.0126,0.1760,0.6021,-0.0879,-1.1292,-2.9290,0.0563,0.1232,0.7637,2.7206,-32.2324,-41.9070,46.89897290,-114.04039850,1.41402137,959.71588135,
51.973538,0.1294,0.1956,0.8629,0.9752,-0.5321,-1.4733,-0.2608,-0.2253,0.3683,0.6344,-31.6346,-42.7244,46.89896420,-114.04041430,1.36557090,959.71588135,
52.074220,0.2225,0.1882,1.2142,0.9985,0.0386,1.4052,-0.2190,-0.2029,-0.2957,-0.8418,-30.7074,-43.4320,46.89896420,-114.04041430,1.36557090,959.71588135,
52.174344,0.1290,0.1665,1.2673,0.7057,0.0601,1.4606,-0.6667,0.3471,-0.7509,1.2810,-29.3044,-43.8346,46.89896420,-114.04041430,1.36557090,959.71588135,
52.274610,0.0650,0.1702,0.9392,-0.3907,-0.4879,0.5098,-0.0325,0.1878,-0.1526,3.6722,-28.2308,-43.9200,46.89896420,-114.04041430,1.36557090,959.71588135,
52.374769,0.0001,0.1405,0.7592,0.1929,-0.2599,-1.6908,-0.2979,0.3732,-0.3974,5.8194,-26.4496,-44.3104,46.89896420,-114.04041430,1.36557090,959.71588135,
52.474867,0.0548,0.2311,0.7781,0.2477,0.7400,-2.5382,-0.2042,-0.1176,-0.2020,6.7588,-25.2662,-45.0302,46.89896420,-114.04041430,1.36557090,959.71588135,
52.575688,0.1246,0.1383,1.4437,0.4086,0.3432,3.1477,-0.0046,-0.2826,-0.3586,5.5022,-25.1564,-46.1892,46.89896420,-114.04041430,1.36557090,959.71588135,
52.676290,0.0028,0.2536,1.1067,0.1889,0.9173,1.4282,0.2392,0.0269,-0.3442,6.9784,-26.0714,-45.2620,46.89896420,-114.04041430,1.36557090,959.71588135,
52.776572,-0.0125,0.0393,1.1847,-0.9804,-1.1296,1.7172,-0.0869,-0.3011,-0.0859,6.5148,-26.1080,-44.4202,46.89896420,-114.04041430,1.36557090,959.79742432,
52.877086,-0.1052,0.0955,0.6049,-1.1957,-1.0416,-2.6187,0.3468,0.0439,0.1513,7.3200,-26.9376,-44.3348,46.89895590,-114.04042690,1.30377114,959.79742432,
52.977590,0.0555,0.1026,0.8948,0.1382,-0.5262,-2.1100,-0.2265,-0.4889,-0.0273,5.3802,-27.0474,-44.4324,46.89895590,-114.04042690,1.30377114,959.79742432,
53.077761,0.1579,0.1486,1.0611,0.0335,-0.4187,0.3232,-0.0993,-0.2496,-0.1204,3.5746,-26.7912,-44.5178,46.89895590,-114.04042690,1.30377114,959.79742432,
53.178221,0.1572,0.1913,1.2261,0.1135,0.3142,1.7757,-0.3645,0.1560,-0.4619,5.0142,-25.5468,-44.9204,46.89895590,-114.04042690,1.30377114,959.79742432,
53.278416,0.0035,0.0480,1.1987,-0.1361,-1.0134,3.4532,0.3267,0.3150,-0.1586,8.0764,-24.4122,-45.4328,46.89895590,-114.04042690,1.30377114,959.79742432,
53.378742,0.0949,0.1682,0.6959,0.7995,0.1352,-2.7811,0.0650,-0.1426,-0.1040,8.0154,-25.3150,-44.7252,46.89895590,-114.04042690,1.30377114,959.79742432,
53.479228,0.0354,0.2038,0.7364,-0.4185,-0.0655,-2.6884,0.2615,-0.0391,0.0986,8.1130,-26.5838,-44.4446,46.89895590,-114.04042690,1.30377114,959.79742432,
53.579441,0.0998,0.2561,1.1799,0.2474,0.6516,1.0448,0.1675,-0.1796,0.0632,6.4782,-27.9258,-43.6150,46.89895590,-114.04042690,1.30377114,959.79742432,
53.679754,0.1333,0.2216,1.1808,-0.0713,1.0968,1.5237,-0.2771,-0.0400,0.1884,7.2346,-28.1210,-43.7370,46.89895590,-114.04042690,1.30377114,959.79742432,
53.780224,-0.0639,0.1855,0.8268,-1.8061,-0.3759,0.4045,0.3780,-0.2407,0.5456,6.7222,-28.6212,-43.1148,46.89895590,-114.04042690,1.30377114,959.82055664,
53.880574,-0.0682,0.0688,0.8743,-0.4577,-1.1309,-0.0369,-0.0918,0.2762,0.3418,5.8682,-28.2796,-44.0542,46.89894750,-114.04043910,1.30773723,959.82055664,
53.981672,0.1294,0.2305,0.6776,0.3781,0.3213,-4.0263,-0.0810,-0.3322,0.4271,4.2822,-29.0726,-43.5296,46.89894750,-114.04043910,1.30773723,959.82055664,
54.082181,0.1799,0.1730,1.1420,1.0858,-0.2540,1.5424,0.2169,-0.1640,-0.2131,1.7202,-28.7066,-43.5052,46.89894750,-114.04043910,1.30773723,959.82055664,
54.182581,0.0842,0.2147,1.1610,0.3514,0.0014,2.5175,-0.1720,0.1663,-0.5873,2.2448,-29.1946,-43.7248,46.89894750,-114.04043910,1.30773723,959.82055664,
54.283054,0.0099,0.1073,1.1404,-0.0615,-1.0151,3.4521,0.4912,0.2622,-0.3093,4.8190,-27.1084,-43.8956,46.89894750,-114.04043910,1.30773723,959.82055664,
54.383441,0.0690,0.1950,0.7387,0.4235,0.0893,-2.5817,-0.1324,-0.1342,-0.2316,6.1610,-28.4138,-43.1026,46.89894750,-114.04043910,1.30773723,959.82055664,
54.483765,0.0109,0.2242,0.6704,-0.6166,-0.0661,-2.8295,0.0866,0.0377,-0.0523,6.1610,-28.5846,-42.8952,46.89894750,-114.04043910,1.30773723,959.82055664,
54.584328,0.0422,0.3029,0.9556,-0.2493,0.6477,-1.0069,-0.0302,-0.0634,0.1065,6.7588,-28.0722,-43.4076,46.89894750,-114.04043910,1.30773723,959.82055664,
54.684414,0.1736,0.2998,1.2772,0.1811,0.5106,2.7771,0.2166,-0.0427,0.4249,5.5754,-28.5602,-43.2002,46.89894750,-114.04043910,1.30773723,959.82055664,
54.784965,-0.0695,0.1432,1.0907,-0.3417,-0.8876,3.5847,0.7226,0.1488,-0.0302,5.7218,-29.5362,-41.8582,46.89894750,-114.04043910,1.30773723,959.86389160,
54.885305,-0.0239,0.1413,0.8925,-0.5120,-0.8445,0.0375,0.1708,0.2536,0.1657,5.6852,-31.2564,-41.2726,46.89893860,-114.04045320,1.28287065,959.86389160,
54.985700,0.0333,0.2629,0.5961,0.1036,-0.3064,-2.7356,0.2055,0.2363,0.2477,6.3074,-31.9274,-41.3946,46.89893860,-114.04045320,1.28287065,959.86389160,
55.085544,0.0793,0.2552,0.9802,0.4876,0.1341,-0.9893,-0.1323,-0.2099,0.0951,6.0756,-31.2198,-41.4800,46.89893860,-114.04045320,1.28287065,959.86389160,
55.186350,0.1418,0.2826,1.1292,0.6524,0.4365,0.9002,-0.0613,-0.2968,-0.1252,4.0016,-32.1592,-40.4308,46.89893860,-114.04045320,1.28287065,959.86389160,
55.286556,0.1194,0.2962,1.1054,0.5118,0.3966,1.0916,-0.1964,0.2577,-0.2797,5.0386,-32.0616,-41.5044,46.89893860,-114.04045320,1.28287065,959.86389160,
55.386945,0.1151,0.2327,0.9438,1.0828,-0.2691,0.8217,-0.0526,0.1752,-0.0357,6.3074,-31.5736,-42.2364,46.89893860,-114.04045320,1.28287065,959.86389160,
55.487271,-0.0118,0.1716,0.9486,0.4390,-0.2205,-0.9074,-0.1037,0.0941,-0.1298,6.8076,-30.1584,-42.6268,46.89893860,-114.04045320,1.28287065,959.86389160,
55.587421,-0.0022,0.2932,0.7756,0.0097,0.7812,-3.1410,0.0281,-0.0041,0.0771,7.4786,-30.3536,-41.8948,46.89893860,-114.04045320,1.28287065,959.86389160,
55.687800,0.0578,0.3254,1.1242,0.3312,0.7292,1.1365,0.2603,0.0727,0.3227,7.2590,-30.7318,-41.5898,46.89893860,-114.04045320,1.28287065,959.86389160,
55.788243,0.1491,0.2042,1.2761,1.3958,0.7796,2.3004,-0.1385,0.0613,0.2079,6.5270,-31.6224,-40.9676,46.89893860,-114.04045320,1.28287065,959.86389160,
55.888600,-0.0680,0.2593,0.8609,-0.7456,-0.1449,-0.9159,0.0545,-0.1029,0.3296,5.9780,-32.7692,-40.0404,46.89893860,-114.04045320,1.28287065,959.79913330,
55.988791,0.0041,0.1882,0.8617,0.0952,-0.7496,-0.4881,-0.1630,0.1752,0.2740,5.0630,-31.8664,-41.0652,46.89892860,-114.04046820,1.33079958,959.79913330,
56.089230,0.0065,0.2284,0.7991,-0.1431,-0.0100,-2.0186,-0.3420,-0.1220,0.1083,4.4286,-32.5008,-41.5044,46.89892860,-114.04046820,1.33079958,959.79913330,
56.189618,0.0880,0.2828,0.9924,0.5556,0.4256,0.1391,0.1756,-0.1779,-0.0584,4.2212,-31.5126,-41.3702,46.89892860,-114.04046820,1.33079958,959.79913330,
56.289815,0.0498,0.2633,1.1510,0.4204,0.0703,2.9570,0.2633,0.0150,-0.2922,3.9894,-31.9030,-41.8094,46.89892860,-114.04046820,1.33079958,959.79913330,
56.390327,0.0308,0.1485,1.0388,0.5547,-0.8319,1.5245,-0.0662,0.0894,-0.2632,5.7462,-31.7932,-40.8578,46.89892860,-114.04046820,1.33079958,959.79913330,
56.492689,0.1203,0.2464,0.8875,0.9799,0.0965,-0.5726,-0.1176,0.1292,0.1684,6.1854,-29.6704,-42.0778,46.89892860,-114.04046820,1.33079958,959.79913330,
56.592933,0.0169,0.3164,0.6955,0.2709,0.9540,-2.8640,0.0242,0.1949,-0.1331,7.0272,-30.0364,-41.7728,46.89892860,-114.04046820,1.33079958,959.79913330,
56.690768,-0.0158,0.2610,1.0029,0.0632,0.2987,0.0330,0.1074,0.0829,0.0588,7.7470,-30.7684,-41.2726,46.89892860,-114.04046820,1.33079958,959.79913330,
56.791374,0.0496,0.3130,1.1868,0.6235,0.0729,1.0485,0.2068,0.2610,0.3951,7.7592,-31.7688,-41.0896,46.89892860,-114.04046820,1.33079958,959.91247559,
56.891650,-0.0823,0.2717,1.0703,-0.5671,0.0795,1.1747,-0.0684,-0.1352,0.0590,7.2224,-32.9034,-39.9550,46.89891860,-114.04048150,1.47616923,959.91247559,
56.991864,0.0883,0.1624,0.9398,0.8738,-0.7410,-0.1124,-0.4146,0.1955,0.0646,5.9536,-31.6834,-40.7480,46.89891860,-114.04048150,1.47616923,959.91247559,
57.092401,-0.0234,0.2397,0.6793,-0.1224,0.3307,-3.1994,-0.3974,-0.2498,0.0944,7.2712,-30.7318,-41.1628,46.89891860,-114.04048150,1.47616923,959.91247559,
57.192700,0.1031,0.2573,1.0364,0.8361,0.6906,0.3999,0.0235,-0.1739,-0.1136,5.3924,-28.7554,-42.3584,46.89891860,-114.04048150,1.47616923,959.91247559,
57.293513,0.0663,0.1650,1.2324,0.1718,-0.0813,1.7330,0.4499,0.0981,-0.1483,5.0752,-30.4268,-41.8826,46.89891860,-114.04048150,1.47616923,959.91247559,
57.393551,0.1175,0.1355,1.2627,1.0751,-0.7159,2.0912,-1.0726,0.1809,-0.5130,6.0756,-31.3052,-41.0652,46.89891860,-114.04048150,1.47616923,959.91247559,
57.493788,0.0260,0.3382,0.6874,0.7782,0.4134,-2.2205,0.4365,0.0940,-0.1010,8.3570,-30.3414,-41.4800,46.89891860,-114.04048150,1.47616923,959.91247559,
57.594178,-0.0457,0.2775,0.7302,-0.5692,0.2562,-2.4858,0.0080,-0.2792,0.1475,7.7470,-30.6830,-41.3702,46.89891860,-114.04048150,1.47616923,959.91247559,
57.694613,-0.0541,0.2760,0.7745,-0.7159,0.0061,-1.9513,0.2705,-0.1023,-0.0632,6.7954,-31.9640,-40.9798,46.89891860,-114.04048150,1.47616923,959.91247559,
57.794982,0.1831,0.2260,1.0978,1.0113,-0.0692,1.2665,0.1079,-0.2723,-0.1171,5.7706,-33.0620,-39.8330,46.89891860,-114.04048150,1.47616923,959.91247559,
57.895304,0.0490,0.1796,1.3571,0.2265,-0.6621,3.6426,-0.6495,-0.0371,0.3403,6.7100,-31.7810,-40.8700,46.89891860,-114.04048150,1.47616923,959.93908691,
57.995861,0.0931,0.2111,0.8863,0.6663,-0.4054,-0.1307,0.0643,0.2687,0.5930,5.4900,-31.3662,-41.1628,46.89890690,-114.04049560,1.40264022,959.93908691,
58.096827,-0.0330,0.1245,0.7702,0.0035,-0.8272,-2.2116,-0.7083,0.7855,0.3863,7.1736,-30.3048,-42.5292,46.89890690,-114.04049560,1.40264022,959.93908691,
58.197327,0.1414,0.2334,0.8716,1.4547,0.4864,-1.0569,0.8542,-0.6601,0.0677,6.2708,-29.9144,-41.3458,46.89890690,-114.04049560,1.40264022,959.93908691,
58.297847,0.1187,0.2299,1.1337,0.8358,-0.1729,0.8021,0.0771,-0.3262,-0.3513,4.7824,-31.9030,-40.9676,46.89890690,-114.04049560,1.40264022,959.93908691,
58.398302,0.1883,0.3775,0.9986,1.2436,1.0007,-0.0317,-0.5314,-0.2490,-0.5789,5.0508,-33.6842,-39.7476,46.89890690,-114.04049560,1.40264022,959.93908691,
58.498584,0.0595,0.2872,0.6867,0.1935,-0.2387,-1.5505,0.0979,-0.2598,0.1291,5.9048,-32.4032,-40.1380,46.89890690,-114.04049560,1.40264022,959.93908691,
58.598955,0.1079,0.2466,0.7330,0.4900,-0.0633,-1.4380,0.2267,0.0900,-0.0042,4.8068,-30.0852,-41.8704,46.89890690,-114.04049560,1.40264022,959.93908691,
58.699298,0.0276,0.3045,0.8419,-0.4391,0.4667,-1.3896,0.4958,-0.2323,-0.2143,4.7458,-30.8172,-41.8826,46.89890690,-114.04049560,1.40264022,959.93908691,
58.799851,0.0803,0.4206,0.9169,0.1062,0.6599,0.0350,0.8201,0.2916,0.2412,4.4774,-33.7330,-39.4182,46.89890690,-114.04049560,1.40264022,959.93908691,
58.900059,0.2718,0.2091,1.7780,2.1991,-0.4276,6.0225,-1.0984,-0.3807,-0.0232,2.8914,-35.5386,-39.1498,46.89890690,-114.04049560,1.40264022,960.08825684,
59.000573,0.0820,0.2780,0.9273,0.1308,-0.1640,-0.1651,-0.5158,0.0536,0.0705,3.1842,-34.3186,-39.2108,46.89889650,-114.04050760,1.56308019,960.08825684,
59.100864,-0.0033,0.1139,0.7803,-0.5217,-1.1105,-1.9550,-0.4871,-0.0175,0.0563,4.6360,-31.1100,-41.6752,46.89889650,-114.04050760,1.56308019,960.08825684,
59.201263,0.0263,0.1293,0.8029,-0.1700,-0.7953,-2.0413,-0.2565,0.3342,0.2385,3.8918,-30.6464,-42.1876,46.89889650,-114.04050760,1.56308019,960.08825684,
59.301603,0.0717,0.2457,0.9608,0.4519,0.3118,-0.3238,0.0394,-0.1349,-0.4157,3.9284,-30.0974,-42.3950,46.89889650,-114.04050760,1.56308019,960.08825684,
59.401949,0.0497,0.3448,1.1000,-0.2116,0.9683,1.7671,0.0962,0.0784,-0.2589,4.9044,-29.9876,-42.3950,46.89889650,-114.04050760,1.56308019,960.08825684,
59.502265,0.0540,0.1614,1.1524,0.1718,-0.6605,2.5305,0.2266,0.0702,-0.3522,5.4412,-29.2922,-42.3828,46.89889650,-114.04050760,1.56308019,960.08825684,
59.602333,0.0932,0.2008,0.7476,0.7240,-0.0715,-2.3785,-0.3014,-0.0044,-0.4163,6.9174,-28.9506,-42.1632,46.89889650,-114.04050760,1.56308019,960.08825684,
59.703193,-0.0461,0.1901,0.7102,-0.5343,-0.2194,-2.7866,-0.1044,0.1975,-0.2488,8.0154,-28.2918,-42.6878,46.89889650,-114.04050760,1.56308019,960.15417480,
59.803150,0.0237,0.2434,1.1269,0.1704,0.0273,1.0408,0.5237,0.2292,0.1726,8.7352,-28.9384,-42.0778,46.89889320,-114.04051130,1.55997097,960.15417480,
59.903576,0.0122,0.4444,1.0149,-0.0957,2.0278,0.9155,0.0374,-0.0684,0.2390,8.7596,-31.4760,-40.5528,46.89889320,-114.04051130,1.55997097,960.15417480,
60.003804,-0.0336,0.1798,0.9898,-0.6606,-1.0121,1.4667,0.0738,0.0610,0.1042,7.4908,-30.3414,-41.2604,46.89889320,-114.04051130,1.55997097,960.15417480,
60.104246,-0.0035,0.0838,0.9296,-0.3661,-1.1046,-0.5080,-0.6444,0.1153,0.0708,7.9422,-28.0234,-42.5658,46.89889320,-114.04051130,1.55997097,960.15417480,
60.204927,0.0075,0.1693,0.7583,-0.0766,0.0913,-2.4073,-0.2609,-0.2195,-0.0486,8.0886,-25.8396,-43.6760,46.89889320,-114.04051130,1.55997097,960.15417480,
60.305454,0.0525,0.1708,0.9827,0.2103,0.1953,0.0187,0.3501,0.0010,-0.1260,7.1370,-25.7542,-43.6638,46.89889320,-114.04051130,1.55997097,960.15417480,
60.405817,0.0392,0.1447,1.4059,0.2345,-0.4830,3.5150,0.3122,-0.1887,-0.2298,6.8564,-27.0474,-42.9562,46.89889320,-114.04051130,1.55997097,960.15417480,
60.506186,0.0940,0.0001,1.4612,0.5433,-1.4416,4.6262,-0.3528,-0.0828,-0.2257,7.6006,-26.2422,-42.9440,46.89889320,-114.04051130,1.55997097,960.15417480,
60.606930,0.1060,0.2087,0.7195,0.6653,0.1276,-1.8213,0.0646,0.0778,-0.0148,7.7592,-26.4984,-43.0538,46.89889320,-114.04051130,1.55997097,960.15417480,
60.707417,-0.0633,0.1849,0.6307,-0.7889,0.1586,-3.6071,-0.0891,0.0460,-0.1518,8.3692,-25.9006,-43.6760,46.89889320,-114.04051130,1.55997097,960.15417480,
60.807970,0.0109,0.1830,0.8423,-0.1367,0.0594,-1.7562,0.3404,0.0187,0.1631,8.7474,-26.3032,-42.6268,46.89889320,-114.04051130,1.55997097,960.15417480,
60.908411,0.1009,0.2150,1.2127,0.4736,0.1461,1.6982,0.2250,-0.2550,0.3233,7.8324,-28.3894,-41.5166,46.89889320,-114.04051130,1.55997097,960.31024170,
61.008638,0.0123,0.1359,1.5023,0.3218,-0.9612,6.4740,0.2796,0.3273,0.1641,6.2830,-28.3772,-42.3584,46.89888200,-114.04053630,1.38398647,960.31024170,
61.109110,-0.0440,0.1554,0.9484,-0.8287,-0.4276,-0.1686,-0.3960,0.0028,0.1547,6.6856,-28.1576,-42.2486,46.89888200,-114.04053630,1.38398647,960.31024170,
61.209390,0.0434,0.1448,0.7333,0.1292,-0.4357,-2.0624,-0.1605,0.1741,0.1701,6.0878,-27.1328,-42.6390,46.89888200,-114.04053630,1.38398647,960.31024170,
61.309990,0.1536,0.1701,0.8453,0.7444,-0.0549,-1.8801,-0.1366,-0.3817,-0.0104,4.8556,-26.8888,-42.6146,46.89888200,-114.04053630,1.38398647,960.31024170,
61.410022,0.1165,0.2286,0.9640,0.3050,0.2848,-0.2118,0.5698,-0.3498,-0.3308,4.5994,-27.6574,-42.8586,46.89888200,-114.04053630,1.38398647,960.31024170,
61.510635,0.1270,0.2974,0.9411,-0.2513,0.5678,0.1632,0.0082,-0.1949,-0.3331,4.3676,-29.7558,-41.6386,46.89888200,-114.04053630,1.38398647,960.31024170,
61.610739,0.0969,0.1105,1.1669,0.0344,-1.5327,3.4863,-0.0497,0.1522,-0.2137,5.0630,-26.8644,-42.0900,46.89888200,-114.04053630,1.38398647,960.31024170,
61.711016,0.0439,0.1628,0.7972,0.0313,-0.1370,-1.2181,-0.2035,0.1975,-0.3406,5.7218,-25.5346,-43.4320,46.89888200,-114.04053630,1.38398647,960.31024170,
61.811628,-0.0508,0.2033,0.7026,-1.2137,0.3086,-3.2585,-0.0415,0.0466,-0.0871,8.2350,-25.0100,-44.2860,46.89888200,-114.04053630,1.38398647,960.31719971,
61.912133,0.0837,0.2137,1.1158,0.1112,0.2078,0.6236,0.2333,-0.1542,0.1900,8.2594,-25.0832,-43.3344,46.89887480,-114.04055030,1.27928162,960.31719971,
62.012444,0.1840,0.2111,1.2047,0.3409,1.6380,1.5078,-0.4008,-0.2615,0.1724,7.1858,-26.5594,-43.0538,46.89887480,-114.04055030,1.27928162,960.31719971,
62.113056,0.0337,0.1613,1.0120,-0.8977,-0.4951,1.1532,-0.0272,-0.0569,0.2664,6.1244,-26.5838,-43.2612,46.89887480,-114.04055030,1.27928162,960.31719971,
62.213647,0.0060,0.0851,0.7670,-0.8663,-0.9359,-1.6890,-0.2593,0.3766,0.2395,6.2342,-25.0344,-43.8468,46.89887480,-114.04055030,1.27928162,960.31719971,
62.314123,0.0080,0.1647,0.7003,-0.6027,0.0769,-3.4271,-0.0035,-0.3422,0.1556,6.7832,-24.0584,-44.1396,46.89887480,-114.04055030,1.27928162,960.31719971,
62.414218,0.1202,0.1750,0.9378,0.4296,-0.0906,-0.2569,0.2653,-0.3332,-0.0984,4.0870,-25.5224,-43.6394,46.89887480,-114.04055030,1.27928162,960.31719971,
62.514428,0.1210,0.1518,1.2926,0.6185,-0.4577,3.1529,0.0254,0.1141,-0.3892,3.1598,-25.1686,-43.5174,46.89887480,-114.04055030,1.27928162,960.31719971,
62.614806,0.1217,0.0684,1.3162,0.2416,-0.7549,4.0366,-0.0724,0.1404,-0.2376,4.0016,-24.0828,-43.9078,46.89887480,-114.04055030,1.27928162,960.31719971,
62.715499,0.0700,0.1218,0.7747,-0.3918,-0.4114,-1.2433,-0.0796,0.0868,0.1965,4.5262,-23.8266,-43.1636,46.89887480,-114.04055030,1.27928162,960.31719971,
62.815573,0.0600,0.1793,0.5723,-0.5378,0.3354,-3.8567,-0.0910,0.0185,0.0548,4.7336,-23.4484,-43.7980,46.89887480,-114.04055030,1.27928162,960.26342773,
62.916135,0.1234,0.1248,0.9358,-0.0458,0.0597,-0.8800,0.0471,0.0611,-0.0949,4.0016,-22.8140,-44.5056,46.89886650,-114.04056870,1.40595698,960.26342773,
63.016439,0.1728,0.0640,1.2712,0.2670,-0.1662,2.0209,-0.1110,-0.1719,0.1063,3.8064,-22.9116,-44.1884,46.89886650,-114.04056870,1.40595698,960.26342773,
63.116936,0.0470,-0.0257,1.5797,0.1824,-0.9266,5.4805,-0.1408,-0.1332,-0.0878,3.5624,-22.1308,-44.8106,46.89886650,-114.04056870,1.40595698,960.26342773,
63.217010,0.0774,-0.0018,1.0281,-0.2755,-0.9741,1.0189,-0.0261,0.1416,0.1931,3.9406,-21.0816,-44.6764,46.89886650,-114.04056870,1.40595698,960.26342773,
63.317792,0.1068,0.1275,0.6116,0.0214,0.0879,-3.1783,0.2463,0.2625,0.2387,4.3188,-22.3260,-44.8228,46.89886650,-114.04056870,1.40595698,960.26342773,
63.418541,0.1245,0.1618,0.7998,0.2307,0.5433,-2.3543,-0.0144,-0.1595,-0.0494,4.0748,-23.0702,-44.2006,46.89886650,-114.04056870,1.40595698,960.26342773,
63.518775,0.1722,0.0609,1.2368,0.4750,-0.3364,2.2848,0.3261,0.0102,-0.2573,4.1846,-23.0580,-43.9932,46.89886650,-114.04056870,1.40595698,960.26342773,
63.619099,0.2509,0.1235,1.2906,1.1931,0.1477,1.0850,-0.7028,-0.1580,-0.6881,5.0874,-24.1316,-42.7488,46.89886650,-114.04056870,1.40595698,960.26342773,
63.719893,0.0436,0.1045,0.9647,-0.1713,-0.5381,1.5062,0.0674,0.6107,-0.0222,7.6494,-21.5086,-44.6032,46.89886650,-114.04056870,1.40595698,960.26342773,
63.819931,0.0177,0.1778,0.4649,-0.1979,0.5169,-4.9003,-0.0256,0.1053,0.1024,8.6742,-22.2162,-43.8956,46.89886650,-114.04056870,1.40595698,960.14373779,
63.920281,0.0776,0.1293,0.9315,0.0379,0.1909,-1.6419,0.0319,-0.1617,0.0671,8.0520,-22.7408,-43.9078,46.89885820,-114.04058410,1.35103893,960.14373779,
64.020575,0.0721,0.2489,1.1116,0.3208,0.6439,1.3998,0.4305,0.2175,0.1314,8.0520,-24.0096,-43.4076,46.89885820,-114.04058410,1.35103893,960.14373779,
64.121026,0.0951,0.1017,1.4252,0.9688,-0.0352,2.9932,-0.2601,-0.1080,-0.1165,8.7962,-24.2902,-43.3222,46.89885820,-114.04058410,1.35103893,960.14373779,
64.221154,0.0011,0.1035,0.9962,-0.4280,-0.7099,0.5796,0.0084,-0.0365,0.0645,8.0276,-24.5464,-42.8952,46.89885820,-114.04058410,1.35103893,960.14373779,
64.321504,-0.0501,0.0700,0.7162,-0.8059,-0.9438,-2.3435,-0.2372,0.2739,0.1652,9.3208,-23.7778,-43.4076,46.89885820,-114.04058410,1.35103893,960.14373779,
64.422050,0.0824,0.1737,0.8014,0.5056,0.4853,-2.7687,-0.0799,-0.5265,-0.0339,8.6620,-23.4850,-43.6150,46.89885820,-114.04058410,1.35103893,960.14373779,
64.522587,0.0591,0.1929,1.0699,-0.0820,0.3278,0.6072,0.3642,-0.2647,-0.1496,7.4908,-23.7900,-43.6150,46.89885820,-114.04058410,1.35103893,960.14373779,
64.622432,0.0294,0.2295,0.9863,-0.9824,1.1435,0.7938,-0.1168,-0.0269,-0.1906,8.4546,-24.8758,-43.5418,46.89885820,-114.04058410,1.35103893,960.14373779,
64.722840,0.0246,0.0181,1.2541,-0.7244,-1.8789,4.5993,0.3298,-0.0801,0.2291,7.8690,-22.4846,-44.2128,46.89885820,-114.04058410,1.35103893,959.93908691,
64.823340,0.0917,0.1699,0.6950,0.6029,0.2121,-2.1243,0.0690,-0.0496,0.0660,7.8568,-23.0214,-43.1636,46.89884980,-114.04059630,1.42011583,959.93908691,
64.923766,0.0167,0.1855,0.7059,-0.2049,0.6441,-2.6809,0.1197,-0.0369,-0.1898,7.6616,-22.8628,-43.7980,46.89884980,-114.04059630,1.42011583,959.93908691,
65.024013,0.0238,0.1240,1.1512,-0.2414,-0.1324,1.1902,0.3103,-0.0965,0.0821,7.7592,-22.7652,-43.7980,46.89884980,-114.04059630,1.42011583,959.93908691,
65.124414,0.1937,0.1772,1.2554,0.4050,0.8493,2.6279,-0.0233,-0.1236,0.3553,6.7222,-24.9734,-43.6394,46.89884980,-114.04059630,1.42011583,959.93908691,
65.224494,0.0602,0.0952,1.0707,-0.4521,-1.0101,1.8201,0.1605,0.0005,0.3133,5.8316,-25.3394,-43.3222,46.89884980,-114.04059630,1.42011583,959.93908691,
65.325001,-0.0025,0.0604,0.8127,-0.7897,-1.0240,-1.3117,-0.1643,0.2120,0.2791,5.7218,-24.4244,-43.0904,46.89884980,-114.04059630,1.42011583,959.93908691,
65.425431,0.0869,0.1709,0.6433,-0.1291,0.0918,-4.0755,-0.1512,-0.4349,0.1896,5.5022,-24.7294,-43.4076,46.89884980,-114.04059630,1.42011583,959.93908691,
65.525792,0.1684,0.1396,1.0371,0.5637,-0.1239,0.5519,0.3157,-0.1829,-0.1934,2.9280,-24.3756,-43.8102,46.89884980,-114.04059630,1.42011583,959.93908691,
65.626386,0.1074,0.1561,1.2295,0.3683,-0.7287,2.5109,-0.0042,0.2227,-0.2226,2.4888,-24.9734,-43.9200,46.89884980,-114.04059630,1.42011583,959.93908691,
65.726476,0.1619,0.0256,1.3375,0.8439,-0.4710,3.7697,-0.4627,0.1991,-0.3971,3.4770,-24.5952,-44.0298,46.89884980,-114.04059630,1.42011583,960.15417480,
65.826928,0.0870,0.1086,0.8074,-0.3016,-0.3854,-1.0550,-0.0401,0.1537,0.0840,4.6726,-22.8262,-44.2982,46.89884130,-114.04061070,1.55373228,960.15417480,
65.927420,0.0472,0.1643,0.6473,-0.5868,0.2601,-3.2725,-0.0719,0.0976,0.1470,5.4656,-22.3870,-44.6154,46.89884130,-114.04061070,1.55373228,960.15417480,
66.027982,0.0976,0.1744,0.9498,-0.1818,0.3021,-0.6194,0.3164,0.0052,0.2854,4.3188,-23.2532,-45.4816,46.89884130,-114.04061070,1.55373228,960.15417480,
66.128365,0.2131,0.1925,1.2394,0.6435,0.7012,1.3162,-0.1715,-0.1171,0.1201,3.6478,-23.8388,-43.7980,46.89884130,-114.04061070,1.55373228,960.15417480,
66.228856,-0.0108,0.0144,1.3800,-0.5736,-0.8790,5.0160,0.1914,0.0658,0.0944,3.4526,-22.2406,-45.0180,46.89884130,-114.04061070,1.55373228,960.15417480,
66.329207,0.0569,0.0970,0.8868,-0.5477,-0.3065,-0.2239,0.1136,0.2781,0.3171,2.8670,-23.7534,-44.3226,46.89884130,-114.04061070,1.55373228,960.15417480,
66.429478,0.0210,0.1660,0.5785,-0.7511,0.1269,-3.8469,0.1580,-0.0071,0.3115,4.1236,-24.8026,-44.4690,46.89884130,-114.04061070,1.55373228,960.15417480,
66.529987,0.1356,0.1232,0.8963,-0.0534,-0.1459,-2.3018,-0.0894,-0.5508,-0.1080,2.7816,-25.0222,-43.7126,46.89884130,-114.04061070,1.55373228,960.15417480,
66.629926,0.2404,0.1110,1.2453,0.4435,-0.4497,1.9800,0.0819,-0.1411,-0.3176,1.3054,-25.4492,-43.5052,46.89884130,-114.04061070,1.55373228,960.15417480,
66.730425,0.3331,0.0595,1.5599,2.5442,0.1003,3.9096,-0.8016,0.1720,-0.7344,2.3668,-25.2662,-44.2494,46.89884130,-114.04061070,1.55373228,959.82922363,
66.831026,0.1726,0.1227,0.8449,0.4794,-0.4593,0.0891,0.2280,0.2066,0.1418,4.6116,-23.8266,-43.5906,46.89883090,-114.04062550,1.49250364,959.82922363,
66.931344,0.0655,0.2122,0.4971,-0.1660,0.3794,-4.0807,0.0755,0.1936,-0.1085,5.3558,-25.1320,-44.2738,46.89883090,-114.04062550,1.49250364,959.82922363,
67.031855,0.0102,0.1583,0.9310,-0.8869,0.1246,-2.0666,0.1973,-0.3063,-0.1735,5.8682,-24.8880,-43.7370,46.89883090,-114.04062550,1.49250364,959.82922363,
67.132197,0.1199,0.2237,1.1087,-0.0824,0.0711,1.2505,0.4981,0.1302,0.1474,5.3070,-27.1328,-43.1636,46.89883090,-114.04062550,1.49250364,959.82922363,
67.232922,0.0050,-0.1096,1.7848,0.8029,-1.1285,6.5374,-0.3833,-0.1467,-0.2722,5.0996,-26.0592,-43.6638,46.89883090,-114.04062550,1.49250364,959.82922363,
67.333084,0.1013,0.1493,0.8660,0.0731,-0.3667,-0.8775,-0.2334,0.0989,0.2806,4.5140,-26.2056,-43.2368,46.89883090,-114.04062550,1.49250364,959.64135742,
67.433776,0.0125,0.1329,0.6487,-0.7862,-0.3463,-2.9666,0.0785,-0.0409,0.3408,5.8072,-25.7054,-43.4442,46.89882860,-114.04062830,1.48994541,959.64135742,
67.533983,0.1537,0.1335,0.8310,-0.0519,-0.3811,-2.3796,0.1467,-0.3212,0.1669,3.2330,-26.4496,-43.9810,46.89882860,-114.04062830,1.48994541,959.64135742,
67.634621,0.1726,0.1140,1.1168,0.4823,-0.6914,0.4863,0.2098,-0.0904,-0.2621,2.7450,-27.9502,-43.1636,46.89882860,-114.04062830,1.48994541,959.64135742,
67.735491,0.3683,0.1610,1.3801,1.7948,0.5144,1.0345,-1.0358,-0.1424,-0.6862,3.3794,-27.4134,-42.4072,46.89882860,-114.04062830,1.48994541,959.64135742,
67.835733,0.0910,0.2250,0.8445,0.1513,-0.1441,0.8477,0.1658,0.5869,0.1087,6.5148,-25.0954,-43.8590,46.89882860,-114.04062830,1.48994541,959.64135742,
67.936130,-0.0165,0.1908,0.5698,-0.4482,0.1777,-3.5142,-0.0149,0.1526,0.1099,7.5274,-25.5346,-44.0908,46.89882860,-114.04062830,1.48994541,959.64135742,
68.036372,-0.0233,0.2517,0.7880,-1.0538,0.5135,-2.5503,0.2224,-0.1078,0.3697,7.1248,-25.9372,-43.3588,46.89882860,-114.04062830,1.48994541,959.64135742,
68.136835,-0.0109,0.2305,1.2195,-0.6703,0.4291,1.8128,0.3323,0.1469,0.3536,6.2586,-27.3890,-42.7488,46.89882860,-114.04062830,1.48994541,959.64135742,
68.237288,-0.0118,0.1591,1.4804,0.8493,0.3581,4.3968,-0.0493,0.1993,0.1831,5.9658,-27.7672,-41.8094,46.89882860,-114.04062830,1.48994541,959.64135742,
68.338237,0.0142,0.0688,1.0853,-0.6208,-1.2355,1.4719,-0.0664,0.0995,0.5712,5.2338,-29.4996,-42.1632,46.89882860,-114.04062830,1.48994541,959.64135742,
68.438542,0.0104,0.1400,0.5969,-0.2999,-0.7214,-2.7997,0.1957,0.2124,0.7217,5.6120,-29.8168,-41.5410,46.89882860,-114.04062830,1.48994541,959.64135742,
68.539066,0.0829,0.1212,0.7699,0.0017,-0.9009,-2.4224,0.1753,-0.3147,0.4984,3.0744,-30.0852,-41.9558,46.89882860,-114.04062830,1.48994541,959.64135742,
68.639290,0.1240,0.1879,0.9972,0.1655,-0.4957,0.0025,0.1024,-0.1591,-0.0851,1.1224,-30.7440,-41.4312,46.89882860,-114.04062830,1.48994541,959.64135742,
68.739744,0.2854,0.2146,1.0962,0.4847,0.6981,0.3075,-0.8353,-0.1707,-0.5192,1.1834,-31.0978,-41.3336,46.89882860,-114.04062830,1.48994541,959.73785400,
68.840083,0.1417,0.2291,1.0610,-0.0479,-0.1892,2.0573,0.0215,-0.0312,-0.0120,3.7210,-27.6696,-43.4808,46.89881040,-114.04064900,1.49142492,959.73785400,
68.940248,0.1084,0.1933,0.8670,0.4699,0.3039,-0.3763,-0.1737,0.1504,-0.3657,4.0504,-26.9986,-44.1030,46.89881040,-114.04064900,1.49142492,959.73785400,
69.041007,-0.0090,0.2214,0.5736,-0.7615,0.1934,-4.2171,0.2143,0.1622,-0.2585,6.0146,-26.6936,-43.2612,46.89881040,-114.04064900,1.49142492,959.73785400,
69.141508,-0.0165,0.2353,1.1682,-1.1529,0.2138,0.4789,0.3350,-0.0882,0.0003,6.2098,-28.0356,-42.6634,46.89881040,-114.04064900,1.49142492,959.73785400,
69.241575,0.1309,0.2440,1.3095,-0.4024,0.5382,3.2745,0.0584,-0.0722,0.1155,6.2098,-29.4752,-41.8582,46.89881040,-114.04064900,1.49142492,959.73785400,
69.342010,0.0090,0.1826,0.9475,-1.0110,-0.7931,0.7381,0.1431,-0.0369,0.1168,6.1366,-30.4878,-41.2482,46.89881040,-114.04064900,1.49142492,959.73785400,
69.442376,-0.0217,0.1472,0.7038,-0.6513,-1.1109,-1.6950,-0.2645,0.2486,0.1452,7.1126,-29.8534,-42.6146,46.89881040,-114.04064900,1.49142492,959.73785400,
69.542875,0.0306,0.1316,0.8122,0.0000,-0.7019,-2.4930,-0.1241,-0.3398,0.0524,6.5148,-29.0116,-42.7976,46.89881040,-114.04064900,1.49142492,959.73785400,
69.643089,0.1290,0.1719,0.9292,-0.0897,-1.0926,-0.5919,0.2105,-0.3839,0.0095,4.6726,-29.3654,-41.9436,46.89881040,-114.04064900,1.49142492,959.73785400,
69.743355,0.1330,0.2344,1.1197,-0.0668,-0.9831,2.6915,0.1573,-0.0406,-0.3574,4.1968,-28.9750,-42.9928,46.89881040,-114.04064900,1.49142492,959.57830811,
69.843727,0.0408,0.0516,1.5253,0.5185,-0.6854,4.7890,-0.6088,0.2906,-0.9629,6.0146,-26.5228,-43.8956,46.89879930,-114.04065970,1.33467746,959.57830811,
69.944075,0.0153,0.1900,0.7570,-0.1103,0.2354,-1.7930,-0.1683,0.0786,-0.3556,9.1866,-25.2662,-43.9810,46.89879930,-114.04065970,1.33467746,959.57830811,
70.044440,-0.0179,0.2043,0.6124,-0.5078,0.0867,-3.8293,0.0481,-0.0053,-0.1342,9.5892,-25.1320,-43.5662,46.89879930,-114.04065970,1.33467746,959.57830811,
70.144820,-0.0001,0.2637,0.8427,-0.3326,0.4707,-2.0390,0.2385,-0.0310,-0.0327,9.7478,-25.5712,-43.6760,46.89879930,-114.04065970,1.33467746,959.57830811,
70.245585,0.0541,0.2600,1.3547,0.0358,-0.6357,4.2293,0.1950,0.2178,0.1684,8.5522,-26.2422,-43.1636,46.89879930,-114.04065970,1.33467746,959.57830811,
70.345595,0.0348,0.0858,1.3328,-0.5695,-0.9722,4.1440,-0.0090,-0.3005,0.1318,8.1984,-25.9006,-42.9318,46.89879930,-114.04065970,1.33467746,959.57830811,
70.446031,0.1009,0.1348,0.9148,0.2420,-0.7439,0.3800,-0.0045,0.2430,0.1985,8.0154,-25.6688,-43.6760,46.89879930,-114.04065970,1.33467746,959.57830811,
70.546258,0.1362,0.2148,0.6137,0.6012,0.0355,-3.7587,0.1940,-0.1612,0.0452,7.8812,-27.0596,-44.3470,46.89879930,-114.04065970,1.33467746,959.57830811,
70.646618,0.1463,0.1630,0.7953,0.6204,-0.6399,-2.0184,0.3299,-0.2064,-0.3412,7.3810,-27.6452,-43.1880,46.89879930,-114.04065970,1.33467746,959.57830811,
70.746963,0.0380,0.2043,1.1574,0.6238,-0.8921,0.2825,0.0279,-0.0196,-0.6307,7.9300,-28.1210,-42.4682,46.89879930,-114.04065970,1.33467746,959.57830811,
70.847449,0.0521,-0.0331,1.6399,1.5195,-0.9781,4.6939,-1.0375,-0.0778,-1.1804,9.9796,-25.0832,-43.5662,46.89879930,-114.04065970,1.33467746,959.61761475,
70.947904,0.2148,0.2506,0.6530,1.2702,0.2323,-1.4774,0.0421,-0.1538,-0.2922,11.0288,-24.0584,-43.1148,46.89879020,-114.04067110,1.26327729,959.61761475,
71.048069,0.0145,0.2018,0.6083,0.1905,-0.0524,-2.9248,0.0443,0.0865,-0.5081,11.1508,-22.4114,-43.8102,46.89879020,-114.04067110,1.26327729,959.61761475,
71.148574,-0.0672,0.2593,0.9626,-1.0461,0.6156,-1.6215,0.2292,-0.1535,-0.0298,12.0048,-22.4114,-44.2372,46.89879020,-114.04067110,1.26327729,959.61761475,
71.248662,0.0667,0.3094,1.1547,-0.6890,0.8780,1.4164,0.4918,0.0985,0.4411,11.7486,-24.7172,-43.2490,46.89879020,-114.04067110,1.26327729,959.61761475,
71.349244,-0.0692,-0.0304,1.5959,-0.0622,-1.6815,4.3100,-0.0706,-0.2279,0.2919,10.5896,-25.9372,-43.2734,46.89879020,-114.04067110,1.26327729,959.61761475,
71.449415,0.1808,0.1436,0.9672,0.4840,-0.7667,-0.2894,-0.6267,-0.0409,0.3898,9.4306,-25.8762,-43.5784,46.89879020,-114.04067110,1.26327729,959.61761475,
71.549783,0.1395,0.2344,0.6128,0.5874,0.4327,-3.3152,0.0980,0.0655,-0.0359,10.0040,-24.7172,-43.5540,46.89879020,-114.04067110,1.26327729,959.61761475,
71.650219,0.0445,0.1854,0.7872,-0.2733,0.0117,-1.9362,0.1492,-0.2892,-0.5087,11.0654,-24.4488,-44.6154,46.89879020,-114.04067110,1.26327729,959.61761475,
71.750908,0.0494,0.0876,1.3203,-0.5944,-0.9428,3.0969,0.1172,-0.4157,-0.5203,9.1500,-24.4488,-44.0664,46.89879020,-114.04067110,1.26327729,959.99340820,
71.850689,0.2728,0.2338,1.2588,-0.3592,0.7856,0.9346,-0.5074,-0.5266,-0.3825,9.2842,-25.2540,-43.8834,46.89878330,-114.04068710,1.40098047,959.99340820,
71.951092,-0.0085,0.2267,0.7427,-1.0436,0.0355,-1.5162,0.2325,0.4156,-0.0022,10.4920,-23.3996,-44.0420,46.89878330,-114.04068710,1.40098047,959.99340820,
72.051566,-0.0679,0.1945,0.6549,-1.5428,-0.0723,-2.9988,0.0245,-0.0793,-0.0098,10.6140,-23.0214,-44.1396,46.89878330,-114.04068710,1.40098047,959.99340820,
72.152054,-0.0446,0.2503,0.7138,-1.4263,0.3702,-2.6846,0.1686,0.0937,0.1520,11.3460,-23.3996,-44.3714,46.89878330,-114.04068710,1.40098047,959.99340820,
72.252183,-0.0752,0.2663,1.3083,-1.4594,0.4174,3.1048,0.2343,0.3604,0.4084,11.6022,-23.9120,-43.8590,46.89878330,-114.04068710,1.40098047,959.99340820,
72.352398,0.0653,0.1388,1.6285,0.2541,-0.6527,5.3739,-0.2785,-0.3516,0.5881,11.7974,-26.6082,-42.4560,46.89878330,-114.04068710,1.40098047,959.99340820,
72.453041,0.0645,0.1913,0.9689,-0.0094,-0.8323,0.2372,0.1232,0.0600,0.8382,9.3818,-29.3288,-41.9802,46.89878330,-114.04068710,1.40098047,959.99340820,
72.553325,0.0407,0.2074,0.5051,-0.1501,-0.6513,-4.2789,-0.2082,0.1986,0.5979,9.6136,-30.1218,-41.7972,46.89878330,-114.04068710,1.40098047,959.99340820,
72.653663,0.0605,0.1681,0.8097,-0.2873,-0.8278,-1.4880,0.2979,-0.5065,0.4034,8.1740,-28.9018,-41.6386,46.89878330,-114.04068710,1.40098047,959.99340820,
72.754199,0.1154,0.2617,0.8383,0.1362,-0.2808,-1.0221,0.3914,-0.1417,-0.1900,5.9414,-30.6830,-40.9310,46.89878330,-114.04068710,1.40098047,959.88354492,
72.854561,0.1448,0.2996,1.0026,0.2345,0.1748,0.9533,-0.1877,0.0854,-0.4099,6.2586,-31.3784,-40.9554,46.89877590,-114.04070470,1.39700627,959.88354492,
72.954785,0.0911,0.0905,1.2809,-0.1667,-1.5276,3.2905,-0.1350,-0.1182,-0.2558,8.2228,-28.2674,-41.9436,46.89877590,-114.04070470,1.39700627,959.88354492,
73.055170,0.2246,0.2688,0.5768,1.5249,0.2232,-3.7066,-0.2219,-0.0392,-0.5352,9.4428,-28.5114,-42.4926,46.89877590,-114.04070470,1.39700627,959.88354492,
73.155631,-0.0237,0.2482,0.6176,-0.7075,0.1176,-3.4321,-0.0909,0.1091,-0.5572,10.9312,-26.7058,-42.2364,46.89877590,-114.04070470,1.39700627,959.88354492,
73.255880,-0.0606,0.3269,1.0868,-0.8449,0.7443,0.9288,0.2274,-0.0476,-0.0799,12.1268,-25.9494,-43.1758,46.89877590,-114.04070470,1.39700627,959.88354492,
73.356457,0.0099,0.4293,1.3213,0.0013,1.1802,3.7166,0.3902,0.5318,0.2635,11.7608,-27.3280,-41.4068,46.89877590,-114.04070470,1.39700627,959.88354492,
73.456947,-0.1267,0.2961,0.9914,-1.0607,-0.0648,0.8860,0.3584,0.1180,-0.0221,13.0662,-29.2800,-40.4186,46.89877590,-114.04070470,1.39700627,959.88354492,
73.557204,-0.0388,0.0801,1.0064,-0.0743,-1.6286,0.5969,-0.3381,0.3994,-0.3889,13.3224,-28.0966,-42.1876,46.89877590,-114.04070470,1.39700627,959.88354492,
73.657315,-0.0016,0.2054,0.6427,0.2890,-0.5323,-3.3695,-0.0248,-0.1016,-0.1490,14.7376,-27.1206,-42.2730,46.89877590,-114.04070470,1.39700627,959.88354492,
73.757753,0.0621,0.2208,0.7834,0.6762,-0.3842,-1.8014,0.0921,-0.2657,-0.1619,13.4078,-27.1572,-41.6264,46.89877590,-114.04070470,1.39700627,959.88354492,
73.857997,0.1287,0.1337,1.3244,0.8981,-0.9294,2.7124,-0.2997,-0.5989,-0.5028,12.1512,-27.3768,-41.4190,46.89876650,-114.04072050,1.35033584,959.88354492,
73.958612,0.2119,0.1775,1.5360,1.5355,-0.1943,4.9888,-0.9688,-0.3713,-0.6861,12.3952,-25.0100,-43.0416,46.89876650,-114.04072050,1.35033584,959.88354492,
74.058878,0.0451,0.2626,0.7625,0.3103,0.4744,-1.5781,0.0799,0.1669,-0.2541,14.3472,-23.3508,-43.7614,46.89876650,-114.04072050,1.35033584,959.88354492,
74.159143,-0.0421,0.2903,0.5355,-0.5556,0.6721,-4.3318,0.1266,-0.1638,-0.1502,14.2618,-23.4362,-42.9074,46.89876650,-114.04072050,1.35033584,959.88354492,
74.259643,-0.0363,0.2820,0.8375,-0.7301,0.5094,-1.4508,0.3885,-0.1889,0.0030,14.3228,-23.7046,-43.3466,46.89876650,-114.04072050,1.35033584,959.88354492,
74.360008,-0.0050,0.2381,1.2564,-0.5043,-0.0120,2.5580,0.2435,0.0248,0.0518,14.0178,-25.2784,-42.5414,46.89876650,-114.04072050,1.35033584,959.88354492,
74.460485,-0.0688,0.1972,1.3564,-0.4007,-0.5188,3.6673,-0.0051,0.0122,0.1785,14.6522,-26.0226,-41.6020,46.89876650,-114.04072050,1.35033584,959.88354492,
74.560862,0.0957,0.2081,0.9270,0.7094,-0.5864,-0.0652,-0.2051,0.0165,0.2658,13.4932,-27.4134,-41.0042,46.89876650,-114.04072050,1.35033584,959.88354492,
74.661107,0.0325,0.2398,0.5172,0.1063,-0.3554,-4.0956,-0.0289,-0.0449,0.2180,12.9198,-27.3036,-41.5288,46.89876650,-114.04072050,1.35033584,959.88354492,
74.761353,0.0774,0.2876,0.7889,0.0215,0.1983,-1.9248,-0.0492,-0.5163,0.0311,11.3704,-27.1206,-42.8952,46.89876650,-114.04072050,1.35033584,959.78179932,
74.861947,0.1077,0.1816,1.2633,0.0213,-0.5789,2.9597,-0.0330,-0.1396,-0.4437,9.1134,-26.2666,-43.3832,46.89875950,-114.04073800,1.43937588,959.78179932,
74.962318,0.2073,0.3213,1.1715,0.8372,0.7530,1.2743,-0.3963,-0.1793,-0.4052,11.7974,-25.2540,-43.0538,46.89875950,-114.04073800,1.43937588,959.78179932,
75.062330,0.0813,0.1522,0.9589,0.1779,-0.8732,0.9927,0.0529,0.2937,-0.1502,12.1390,-23.3874,-43.4198,46.89875950,-114.04073800,1.43937588,959.78179932,
75.162531,0.0467,0.1943,0.6562,0.0009,-0.1433,-3.1357,-0.2187,-0.1934,-0.1961,13.3956,-21.9844,-43.7126,46.89875950,-114.04073800,1.43937588,959.78179932,
75.263231,0.0430,0.2697,0.7918,-0.2133,0.6440,-2.1368,-0.0813,-0.1212,-0.2802,12.4806,-21.2646,-44.1030,46.89875950,-114.04073800,1.43937588,959.78179932,
75.363308,0.0116,0.2514,1.2482,-0.4986,0.5840,2.2258,0.0192,-0.2070,-0.3037,13.2736,-21.0084,-44.3104,46.89875950,-114.04073800,1.43937588,959.78179932,
75.463788,0.1123,0.2059,1.3673,0.5229,0.1794,3.5687,0.0366,-0.0305,-0.0797,12.6636,-21.4354,-44.3226,46.89875950,-114.04073800,1.43937588,959.78179932,
75.564013,0.0732,0.1794,1.0117,-0.1464,-0.4239,0.1333,-0.0665,-0.3302,0.1646,12.7002,-22.1552,-44.1274,46.89875950,-114.04073800,1.43937588,959.78179932,
75.664648,-0.0013,0.1744,0.6062,-0.6505,-0.5025,-3.0437,0.0321,0.1869,0.3001,12.3952,-22.3748,-44.3470,46.89875950,-114.04073800,1.43937588,959.78179932,
75.764809,0.1525,0.3046,0.6065,0.3121,0.8872,-3.7123,-0.3611,-0.6489,-0.0391,10.4432,-21.4842,-44.4202,46.89875950,-114.04073800,1.43937588,959.52972412,
75.865318,0.1331,0.1363,1.2253,-0.5415,-0.4186,2.6667,0.2682,-0.6257,-0.2906,6.7222,-19.6176,-46.0306,46.89875430,-114.04075540,1.37660217,959.52972412,
75.965406,0.1924,0.1764,1.1624,-0.3446,0.1160,1.9865,-0.2488,-0.1658,-0.4201,6.3806,-20.1178,-46.2502,46.89875430,-114.04075540,1.37660217,959.52972412,
76.065894,0.1533,0.0636,1.2325,-0.1483,-1.1890,3.7087,0.2532,0.6798,0.1210,8.9304,-17.0190,-46.6040,46.89875430,-114.04075540,1.37660217,959.52972412,
76.166318,0.0902,0.2102,0.4853,-0.1996,0.2275,-4.4512,0.3410,-0.0828,0.3455,9.9918,-19.6298,-45.5304,46.89875430,-114.04075540,1.37660217,959.52972412,
76.266871,0.1195,0.2207,0.7152,-0.3130,0.3247,-3.0252,-0.1349,-0.3435,-0.1494,8.6498,-19.7640,-45.0912,46.89875430,-114.04075540,1.37660217,959.52972412,
76.367237,0.0665,0.2737,1.0746,-0.6677,0.5624,1.0153,0.1013,0.2910,-0.1919,8.0520,-19.8494,-45.8354,46.89875430,-114.04075540,1.37660217,959.52972412,
76.467815,0.1186,0.4546,1.2120,-0.4927,3.0624,2.7146,-0.2931,-0.1865,0.2452,8.3814,-20.3618,-46.0672,46.89875430,-114.04075540,1.37660217,959.52972412,
76.568862,-0.0625,0.0120,1.2367,-3.0047,-1.7905,4.0970,0.4390,0.2581,0.9207,5.8438,-18.5318,-46.3112,46.89875430,-114.04075540,1.37660217,959.52972412,
76.669279,0.1532,0.0475,0.8172,-0.1435,-1.2964,-1.0277,0.1303,0.2738,0.5279,5.0630,-20.0568,-45.2864,46.89875430,-114.04075540,1.37660217,959.52972412,
76.769704,0.1267,0.1602,0.7139,-0.8337,-0.3296,-2.9931,0.2341,-0.4968,0.3043,4.8312,-21.9966,-44.8106,46.89875430,-114.04075540,1.37660217,959.52972412,
76.869960,0.0343,0.3220,1.0720,-1.2800,0.8557,0.6255,-0.0645,-0.2976,0.1654,2.8548,-22.5700,-44.9204,46.89874750,-114.04077570,1.49069548,959.52972412,
76.970535,0.0466,0.0998,1.8447,-1.5877,-0.4771,7.8027,-0.3199,0.4602,0.3355,0.1586,-21.3988,-45.3962,46.89874750,-114.04077570,1.49069548,959.52972412,
77.070483,-0.1384,-0.0324,1.2718,-3.2387,-2.1294,3.0866,1.0183,0.3367,1.4565,2.1228,-23.5460,-44.2006,46.89874750,-114.04077570,1.49069548,959.52972412,
77.170967,-0.1042,-0.0352,0.8303,-1.5300,-2.3047,-1.1123,0.8781,0.9463,1.8884,1.8056,-29.3776,-41.1872,46.89874750,-114.04077570,1.49069548,959.52972412,
77.271655,-0.1364,-0.0164,0.7567,-1.4191,-2.6827,-1.8638,0.7855,1.1758,1.9945,0.5124,-32.6106,-40.1014,46.89874750,-114.04077570,1.49069548,959.52972412,
77.371643,-0.1552,0.0867,0.7772,-1.2539,-2.3601,-1.8779,0.4839,1.2183,2.0987,-0.8296,-35.9900,-36.7952,46.89874750,-114.04077570,1.49069548,959.52972412,
77.471919,0.2253,0.0761,1.3938,2.3815,-2.6333,4.5444,0.2578,0.9868,1.9723,-4.4042,-36.2706,-36.5634,46.89874750,-114.04077570,1.49069548,959.52972412,
77.572361,0.3158,0.1685,0.9664,3.6594,-1.6943,0.9128,-0.2640,0.2802,1.1482,-6.5758,-35.6850,-37.1612,46.89874750,-114.04077570,1.49069548,959.52972412,
77.672871,0.1390,0.1020,0.9507,0.8568,-0.9099,0.0963,-0.4610,0.2430,0.1320,-7.0882,-33.1230,-39.1010,46.89874750,-114.04077570,1.49069548,959.52972412,
77.773144,-0.0320,0.2043,0.7696,-0.5891,0.4523,-2.3421,-0.2447,-0.1110,-0.1524,-6.4782,-31.3296,-39.5890,46.89874750,-114.04077570,1.49069548,959.47888184,
77.873350,0.0401,0.3081,0.8733,-0.2538,1.3620,-1.3872,0.0737,-0.1134,-0.0641,-7.0760,-31.4028,-40.5406,46.89873510,-114.04078990,1.80461788,959.47888184,
77.973528,0.0469,0.2258,1.2031,-0.1346,0.7138,1.6209,-0.1581,-0.5636,-0.2897,-7.8690,-30.9148,-39.2474,46.89873510,-114.04078990,1.80461788,959.47888184,
78.074251,0.1587,0.1860,1.2675,0.2461,0.3998,1.9594,-0.4783,-0.2624,-0.2566,-9.4184,-32.2690,-38.9546,46.89873510,-114.04078990,1.80461788,959.47888184,
78.174258,-0.0215,0.1989,0.8743,-1.2216,0.0489,-0.3727,-0.0042,0.2858,-0.0375,-8.1008,-31.0612,-40.4186,46.89873510,-114.04078990,1.80461788,959.47888184,
78.274526,-0.0324,0.2722,0.6383,-1.1434,0.9191,-3.4134,-0.0689,0.1285,0.0135,-7.3810,-30.5122,-40.0892,46.89873510,-114.04078990,1.80461788,959.47888184,
78.374757,0.1013,0.2847,0.8986,-0.1018,1.2519,-1.2116,0.0088,-0.1419,0.0731,-8.5278,-30.7074,-39.1254,46.89873510,-114.04078990,1.80461788,959.47888184,
78.475440,0.1154,0.2451,1.1434,-0.2838,0.8051,1.0630,0.1094,-0.1297,0.0750,-8.9670,-31.4028,-39.3572,46.89873510,-114.04078990,1.80461788,959.47888184,
78.575728,0.0504,0.0726,1.4025,-0.1748,-0.8352,4.0424,-0.0455,-0.0971,-0.0696,-9.4794,-31.8176,-39.1498,46.89873510,-114.04078990,1.80461788,959.47888184,
78.676491,0.0680,0.1602,0.9528,-0.5863,-0.2094,0.1832,-0.3177,0.2314,-0.0291,-9.5648,-31.5614,-39.3572,46.89873510,-114.04078990,1.80461788,959.47888184,
78.776882,-0.0033,0.1972,0.7069,-0.9440,0.3421,-2.9449,-0.2842,0.0314,-0.0397,-8.0764,-29.5850,-40.3698,46.89873510,-114.04078990,1.80461788,959.43780518,
78.877803,0.0863,0.1956,0.9079,-0.0825,0.4494,-0.8206,0.1364,0.0140,-0.0283,-8.3326,-29.1580,-40.3576,46.89872010,-114.04079050,1.27942801,959.43780518,
