# tool=multi_record
# schema_version=2
# sensors=accelerometer|linear_acceleration|gyroscope|magnetometer|orientation|gps
# Inertial correction: sensor=g_force; operation=add; unit=m/s^2; x=-0.10726921; y=-0.2757522; z=0.038988113
# Inertial correction: sensor=linear_acceleration; operation=add; unit=m/s^2; x=0.0; y=0.0; z=0.0
# Inertial correction: sensor=gyroscope; operation=add; unit=rad/s; x=0.0; y=0.0; z=0.0
time,gFx,gFy,gFz,ax,ay,az,wx,wy,wz,Bx,By,Bz,Azimuth,Pitch,Roll,Latitude,Longitude,Speed (m/s),Altitude (m),
0.069131,-0.0888,0.4718,0.9337,0.9943,0.9328,0.3391,0.5407,-0.4748,-0.1631,6.6246,-8.1618,-48.9830,12.1768,-24.0062,-11.3450,0.00000000,0.00000000,0.00000000,0.00000000,
0.169266,-0.2143,0.4652,0.7305,-0.2240,0.6856,-1.4672,0.0427,0.0217,0.1240,5.0630,-10.7116,-49.1538,12.3628,-26.1392,-10.5103,0.00000000,0.00000000,0.00000000,0.00000000,
0.269517,-0.2552,0.6093,0.9296,-1.3204,2.2766,0.0830,-0.5821,0.3015,0.9496,4.8556,-8.3570,-49.8248,9.3565,-24.1566,-8.9404,0.00000000,0.00000000,0.00000000,0.00000000,
0.370089,-0.1253,0.5931,0.8322,-0.0684,1.5267,-0.6304,0.7507,-0.0132,0.6249,3.4648,-11.3460,-49.5808,5.7803,-28.3876,-6.6261,0.00000000,0.00000000,0.00000000,0.00000000,
0.471199,-0.1879,0.6636,1.0158,-0.3691,1.2552,1.3954,-0.3429,1.1477,0.4463,5.5510,-13.2004,-48.4828,2.0685,-33.2290,-7.5935,0.00000000,0.00000000,0.00000000,0.00000000,
0.570318,-0.2245,0.4678,0.9889,-0.3519,-0.2361,2.0802,0.3570,0.2007,0.3233,9.8820,-11.9316,-48.5926,357.0106,-32.3363,-10.0937,0.00000000,0.00000000,0.00000000,0.00000000,
0.670361,-0.0517,0.3567,0.9317,0.2149,-1.1584,0.6668,-0.4641,-0.0415,1.5062,7.2346,-13.6762,-48.8366,355.1750,-31.7772,-8.3763,0.00000000,0.00000000,0.00000000,0.00000000,
0.771947,0.2244,0.4027,0.6618,2.6586,-0.7886,-1.9909,0.3141,-0.0248,1.1351,6.3196,-14.7498,-47.4702,348.3257,-30.7859,-2.4315,0.00000000,0.00000000,0.00000000,0.00000000,
0.871108,0.1567,0.4263,0.5872,1.5572,-0.7780,-2.5064,0.2569,0.1394,0.3656,3.4892,-16.4212,-47.3970,344.8223,-32.2538,0.5545,0.00000000,0.00000000,0.00000000,0.00000000,
0.971595,0.1929,0.5048,0.9280,1.6888,0.2928,0.4729,-0.9538,-0.1059,-0.1149,3.8552,-15.1280,-48.8488,343.8134,-30.4242,1.4638,0.00000000,0.00000000,0.00000000,0.00000000,
1.071940,0.1944,0.4865,1.2936,1.8955,0.9675,3.5859,-1.1077,-0.0077,-0.0952,5.0142,-10.1626,-49.2392,343.9515,-24.6694,0.1987,0.00000000,0.00000000,0.00000000,0.00000000,
1.172091,0.1800,0.3906,0.9581,1.9503,0.4643,0.4205,0.4086,0.1416,0.0041,5.8072,-7.3444,-49.8004,344.0898,-21.6527,-0.6076,0.00000000,0.00000000,0.00000000,0.00000000,
1.272649,-0.0292,0.3948,0.4419,-0.1114,0.1945,-4.9497,-0.0918,-0.0412,-0.1589,5.1362,-9.7966,-49.5442,344.9519,-24.2065,0.2121,0.00000000,0.00000000,0.00000000,0.00000000,
1.372829,-0.1047,0.4817,0.7315,-0.7465,1.0719,-2.0234,-0.1976,0.2068,-0.1047,6.0146,-8.5034,-49.3124,345.1575,-23.5755,-0.3598,0.00000000,0.00000000,0.00000000,0.00000000,
1.472656,-0.1270,0.5424,0.9921,-0.6345,1.4317,0.7173,-0.3564,0.1776,0.2508,7.0150,-6.6734,-49.6906,344.1579,-25.4962,-3.3071,0.00000000,0.00000000,0.00000000,0.00000000,
1.573276,-0.0172,0.3062,1.3799,0.4735,-0.2836,4.1912,-0.5594,-0.0753,0.5105,7.6616,-3.4892,-49.4954,341.9359,-22.3033,-2.5947,0.00000000,0.00000000,0.00000000,0.00000000,
1.673221,0.1018,0.2681,1.0742,0.9344,-0.7899,1.5131,0.0784,-0.0478,1.1042,6.6002,-4.5262,-50.4714,337.7258,-22.2801,-0.1450,0.00000000,0.00000000,0.00000000,0.00000000,
1.773380,0.0656,0.2060,0.7901,0.5083,-1.1203,-1.2636,0.1953,0.3797,0.9036,8.4180,-4.6116,-50.2762,331.6256,-20.4506,1.6291,0.00000000,0.00000000,0.00000000,0.00000000,
1.873551,0.2529,0.3024,0.8000,1.9148,-0.4617,-1.3590,0.0304,-0.4659,0.3153,7.4054,-6.8930,-48.8488,327.7263,-22.3328,3.7516,0.00000000,0.00000000,0.00000000,0.00000000,
1.974502,0.2757,0.2924,0.8628,1.1454,-0.4525,-0.5196,0.3655,-0.1780,-0.4880,5.9536,-7.9788,-49.8248,327.9341,-21.6279,9.6287,0.00000000,0.00000000,0.00000000,955.29038181,
2.076128,0.0854,0.4023,0.9389,-0.5607,0.7239,-0.0573,-0.7328,0.1966,-0.6925,6.8564,-7.5030,-49.3856,330.2341,-21.1854,7.4795,46.89562710,-114.03389490,4.09183455,955.29038181,
2.175825,0.0639,0.2123,1.2743,-0.4517,-0.5212,3.3735,0.0528,0.2549,-0.1883,7.0760,-2.6230,-48.9342,333.6221,-16.5455,6.5002,46.89562710,-114.03389490,4.09183455,955.29038181,
2.276138,0.0938,0.2615,0.7155,0.9569,0.0577,-2.7128,-0.2560,-0.2604,-0.5058,7.2712,-2.3424,-49.7760,333.8016,-16.8418,6.0761,46.89562710,-114.03389490,4.09183455,955.29038181,
2.376428,0.0215,0.2852,0.6561,-0.7356,0.1441,-3.3778,-0.0884,-0.3275,-0.0970,6.4538,-1.8788,-49.3246,334.7550,-17.0403,6.3508,46.89562710,-114.03389490,4.09183455,955.29038181,
2.476724,0.0341,0.4486,0.9268,-0.7721,1.3573,-0.5807,-0.0529,0.1030,0.2884,5.2948,-2.9280,-50.0932,334.4478,-20.3582,6.2345,46.89562710,-114.03389490,4.09183455,955.29038181,
2.576933,0.2112,0.5834,1.1994,0.8640,2.8166,2.7904,0.0487,0.0657,0.2945,5.5632,-4.3554,-50.0322,331.9307,-20.7504,6.0480,46.89562710,-114.03389490,4.09183455,955.29038181,
2.677051,-0.0343,0.3078,0.8338,-1.2900,-0.4708,-0.2017,0.5644,-0.0435,0.1893,5.9048,-5.0386,-49.4100,331.3846,-21.4464,5.9933,46.89562710,-114.03389490,4.09183455,953.06319248,
2.777319,-0.0278,0.1311,0.9621,-0.8841,-1.2539,0.2824,-0.0092,-0.2458,0.1262,4.1724,-5.0508,-49.8248,330.4070,-16.1279,6.0944,46.89566170,-114.03390210,1.15482867,953.06319248,
2.877703,0.0358,0.2178,0.6828,-0.7455,-0.3150,-3.0462,-0.1161,-0.2518,0.5266,5.3680,-4.5506,-49.6052,327.4020,-15.9526,5.9171,46.89566170,-114.03390210,1.15482867,953.06319248,
2.978167,0.2490,0.2573,0.9403,1.1385,0.1244,0.0134,0.0824,-0.1240,0.0197,1.7568,-5.2948,-49.2880,325.5162,-15.7974,9.1127,46.89566170,-114.03390210,1.15482867,953.06319248,
3.078438,0.0959,0.3216,1.0316,-0.0963,0.8890,0.2777,-0.4363,0.4857,-0.2973,4.1602,-4.1358,-49.4832,325.1728,-15.7821,7.1796,46.89566170,-114.03390210,1.15482867,953.06319248,
3.179710,0.0789,0.2077,1.5834,0.1137,0.3779,5.6032,-0.6810,0.3879,-0.3049,6.0878,-1.6470,-49.6296,325.4374,-13.3313,4.5298,46.89566170,-114.03390210,1.15482867,953.06319248,
3.280094,-0.0645,0.2851,0.6963,-0.6616,0.5552,-2.5889,0.3215,0.5649,0.6830,9.5526,-2.8182,-49.0562,323.3280,-14.4597,0.3523,46.89566170,-114.03390210,1.15482867,953.06319248,
3.380297,-0.0083,0.2623,0.6711,0.0336,0.2669,-2.9475,0.0666,0.0324,0.6480,11.1752,-4.1114,-49.1050,319.1780,-15.3120,0.3342,46.89566170,-114.03390210,1.15482867,953.06319248,
3.480792,0.0707,0.2700,0.8220,0.5871,0.1945,-1.4068,0.4228,0.1717,0.6107,10.3456,-6.3806,-47.8972,315.0914,-16.3239,1.0986,46.89566170,-114.03390210,1.15482867,953.06319248,
3.581014,0.0572,0.1518,1.1941,0.5670,-1.2676,2.1503,0.4185,0.2396,0.3098,11.3948,-8.9182,-47.7630,312.1826,-18.3535,0.6320,46.89566170,-114.03390210,1.15482867,953.06319248,
3.681249,0.0120,0.2268,1.2794,0.5983,-0.6122,2.8753,-0.3699,0.2697,0.4248,12.9198,-10.2114,-47.4946,308.7845,-19.7230,-1.0331,46.89566170,-114.03390210,1.15482867,957.71459961,
3.781673,0.0135,0.2518,1.0867,0.0186,-0.4552,0.8427,-0.3798,-0.4590,0.7709,12.4440,-10.3456,-46.9700,304.8050,-18.2376,-0.3510,46.89569740,-114.03394090,0.68837970,957.71459961,
3.881956,0.1195,0.1486,0.9370,0.7334,-0.8578,-0.0089,0.1300,-0.3687,0.2422,9.8942,-9.6258,-47.7752,301.7521,-16.6031,3.5943,46.89569740,-114.03394090,0.68837970,957.71459961,
3.982601,0.1537,0.1253,0.8364,0.7341,-1.6507,-1.1581,0.6960,0.0459,0.1138,9.5282,-12.9564,-47.6654,299.9704,-18.4376,4.1603,46.89569740,-114.03394090,0.68837970,957.71459961,
4.082978,0.2315,0.2655,0.9232,1.1411,-0.4322,-0.4287,-0.1589,0.1828,-0.2790,10.0040,-14.1764,-47.5922,299.4201,-18.7328,6.6770,46.89569740,-114.03394090,0.68837970,957.71459961,
4.183039,0.1342,0.2817,1.0289,0.4199,0.2065,1.0217,-0.0743,-0.1767,-0.1059,11.2484,-11.9438,-47.2140,299.6147,-16.0926,5.5396,46.89569740,-114.03394090,0.68837970,957.71459961,
4.283524,0.1705,0.3652,0.6794,0.5311,0.8916,-2.5830,0.0850,0.0090,-0.1068,10.0894,-11.9804,-47.8484,299.3990,-17.2831,7.3933,46.89569740,-114.03394090,0.68837970,957.71459961,
4.384767,-0.0447,0.3881,0.5879,-1.4167,1.1034,-3.7150,-0.3390,-0.0314,-0.1948,10.6628,-11.9194,-48.0680,299.4312,-17.1978,6.5273,46.89569740,-114.03394090,0.68837970,957.71459961,
4.485469,0.0897,0.4910,0.8320,-0.1002,2.4097,-1.3080,-0.8641,0.3466,-0.0285,10.6628,-9.4672,-48.5194,299.1589,-15.0577,6.3475,46.89569740,-114.03394090,0.68837970,957.71459961,
4.585796,0.0854,0.4762,1.2103,0.0701,2.3449,2.4848,0.0855,0.2586,-0.0645,11.2240,-5.0874,-47.7630,299.7854,-15.0371,4.7984,46.89569740,-114.03394090,0.68837970,957.71459961,
4.685830,-0.0990,0.5131,1.2159,-0.6554,2.5786,2.8957,0.0011,0.6692,-0.1955,13.4444,-4.9532,-47.8728,299.2563,-14.8883,2.6497,46.89569740,-114.03394090,0.68837970,957.31054688,
4.786235,-0.0382,0.0237,1.0623,-0.7441,-2.2980,2.1456,0.5978,0.4799,0.3929,13.5786,-4.3920,-47.8606,299.4316,-14.0105,2.9321,46.89569590,-114.03396520,1.02018106,957.31054688,
4.886297,0.0694,0.1956,0.8522,0.4026,-0.1083,-1.2897,-0.4362,-0.3369,-0.1338,14.0178,-6.1732,-47.7020,297.4217,-13.7548,2.1725,46.89569590,-114.03396520,1.02018106,957.31054688,
4.986831,-0.0252,0.2932,0.7258,-0.4770,0.9141,-2.4363,0.0222,0.2027,-0.2026,14.3960,-4.8556,-48.2022,298.3935,-12.7702,1.8045,46.89569590,-114.03396520,1.02018106,957.31054688,
5.087434,-0.0177,0.2889,0.8903,-0.1968,1.0394,-0.9155,-0.1468,0.1864,-0.3783,14.5058,-3.8186,-47.0066,300.0280,-11.9855,0.6125,46.89569590,-114.03396520,1.02018106,957.31054688,
5.187751,-0.0367,0.1808,0.9177,-0.1724,0.0667,-0.7101,-0.1097,-0.1445,-0.5209,15.9942,-2.1106,-47.1774,302.1697,-11.7968,-0.6369,46.89569590,-114.03396520,1.02018106,957.31054688,
5.287871,0.0474,0.1252,1.2998,0.6391,-0.7332,3.1075,0.4843,-0.0634,-0.4072,14.9084,-1.2200,-47.4580,305.2631,-11.9364,-0.3048,46.89569590,-114.03396520,1.02018106,957.31054688,
5.388044,0.0782,0.0166,1.4850,0.4505,-1.7002,4.9432,-0.8745,0.0648,-0.9022,13.6396,-0.2562,-47.3116,309.4192,-12.7960,2.9011,46.89569590,-114.03396520,1.02018106,957.31054688,
5.488753,0.1412,0.2379,0.9126,1.0313,0.6985,-0.7006,-0.2018,-0.4095,-0.3246,14.1520,2.5376,-47.7630,311.3443,-11.1886,2.6997,46.89569590,-114.03396520,1.02018106,957.31054688,
5.588963,-0.0077,0.2703,0.6700,-0.5561,0.9762,-3.0049,0.1351,0.1973,-0.2264,12.3830,3.2696,-47.5190,313.4177,-11.0396,3.2278,46.89569590,-114.03396520,1.02018106,957.31054688,
5.689015,-0.0421,0.3044,0.9176,-0.6765,1.2658,-0.7191,-0.0875,0.1631,-0.3273,13.6030,4.1236,-47.6166,315.0067,-11.5782,2.1479,46.89569590,-114.03396520,1.02018106,957.31054688,
5.789554,-0.0390,0.2471,1.2733,-0.1764,0.4286,2.6449,0.1628,0.1313,0.0553,14.3838,4.2090,-47.5068,315.9218,-14.4326,-0.7928,46.89569590,-114.03396520,1.02018106,957.31054688,
5.890258,0.1926,0.0289,1.6974,2.3054,-2.0610,5.7593,-0.1589,-0.5424,-0.1084,14.1276,2.1716,-47.4580,314.4703,-16.2840,-1.0517,46.89569590,-114.03396520,1.02018106,957.16375732,
5.990815,-0.0918,0.0282,1.1167,-0.7013,-2.5320,1.4435,0.0882,-0.1940,0.2480,14.0910,-0.3172,-48.2754,314.8119,-18.0981,-0.3360,46.89570720,-114.03397870,1.33859003,957.16375732,
6.091444,-0.1391,0.2021,0.4496,-1.1934,-0.8324,-4.9156,-0.0106,0.2409,0.8002,14.4448,-2.0984,-47.6898,312.1911,-17.3317,-1.4994,46.89570720,-114.03397870,1.33859003,957.16375732,
6.192045,0.1620,0.1806,1.0132,1.2060,-0.5280,0.1079,-0.6551,-0.3372,0.2862,12.7124,-0.9150,-47.8606,309.4222,-15.1314,1.9814,46.89570720,-114.03397870,1.33859003,957.16375732,
6.292385,0.1218,0.2329,0.7633,0.9670,-0.1074,-1.9558,0.3255,0.2648,-0.0824,12.6636,-1.3908,-48.5072,308.9070,-14.8187,1.9634,46.89570720,-114.03397870,1.33859003,957.16375732,
6.392953,0.0411,0.3386,0.7358,0.2026,0.8108,-2.7422,-0.0380,-0.2308,-0.4822,13.5176,-2.5742,-48.6536,310.3216,-16.7753,1.2143,46.89570720,-114.03397870,1.33859003,957.16375732,
6.493313,0.1097,0.1351,1.0093,0.1481,-0.7121,0.8267,-0.3464,-0.2446,-0.5960,11.0654,-0.7320,-48.9098,314.5960,-15.9174,2.4075,46.89570720,-114.03397870,1.33859003,957.16375732,
6.593638,0.0212,-0.1169,1.5659,-0.3981,-2.5129,5.6744,-0.4836,-0.4044,-0.4588,10.9190,6.4904,-47.8362,319.1380,-9.2470,1.8730,46.89570720,-114.03397870,1.33859003,957.16375732,
6.694083,0.1036,0.2600,0.5432,0.7564,0.9917,-3.8137,0.3117,0.2851,-0.3074,10.2480,4.2212,-48.0070,320.4557,-10.4666,3.1048,46.89570720,-114.03397870,1.33859003,957.16375732,
6.794543,-0.0988,0.1677,0.7107,-1.1612,0.3195,-2.9961,-0.4472,-0.2275,-0.7739,9.7722,5.7950,-49.1294,323.8127,-10.3394,2.7658,46.89570720,-114.03397870,1.33859003,957.16375732,
6.894561,-0.0710,0.1886,0.8944,-1.0201,0.4957,-0.6383,-0.1037,0.0659,-0.2744,7.8080,8.7108,-48.6048,327.2059,-8.1938,2.2546,46.89570720,-114.03397870,1.33859003,957.16375732,
6.994903,-0.0472,0.3023,1.0192,-0.3745,1.4663,0.1966,-0.0099,-0.0131,0.1463,9.4550,9.8210,-47.7264,327.6588,-10.1779,-0.1246,46.89570720,-114.03397870,1.33859003,957.16375732,
7.095560,-0.0440,0.2581,1.3025,-1.4533,2.0770,3.7723,0.6392,-0.1156,0.5780,8.7230,9.0036,-47.8606,326.2729,-11.3540,0.5562,46.89570720,-114.03397870,1.33859003,957.13604736,
7.196701,0.3137,0.0191,1.3105,1.5266,-2.3324,4.7776,1.4155,-1.5903,-0.1800,2.2936,4.8190,-49.5198,327.1254,-15.2398,7.8968,46.89571440,-114.03399150,1.22744322,957.13604736,
7.296923,-0.1238,0.0547,0.6433,-1.8081,-2.2028,-2.3206,0.4264,0.8929,-0.2021,3.3916,1.9886,-50.2518,328.6920,-17.3034,5.6524,46.89571440,-114.03399150,1.22744322,957.13604736,
7.397770,-0.0329,0.1560,0.7359,-1.0190,-1.2788,-2.5250,-0.0559,-0.4942,0.2142,4.5262,0.5612,-49.8736,327.9655,-18.5620,5.4155,46.89571440,-114.03399150,1.22744322,957.13604736,
7.497487,0.0708,0.1960,0.8164,-0.2854,-0.8853,-1.3547,-0.0661,0.1528,0.1401,2.5376,-0.1098,-50.3006,327.0416,-18.8750,7.5466,46.89571440,-114.03399150,1.22744322,957.13604736,
7.598078,0.1096,0.3426,0.6062,-0.2046,0.1564,-3.2429,0.2098,-0.0075,0.1208,2.4888,-0.9272,-49.8004,325.8159,-20.0027,7.5069,46.89571440,-114.03399150,1.22744322,957.13604736,
7.698453,0.4240,0.0394,1.1848,2.7015,-1.7895,1.8565,-1.5553,-0.3290,-0.6340,2.2204,0.5978,-50.0688,326.6856,-17.6441,9.3910,46.89571440,-114.03399150,1.22744322,957.13604736,
7.798649,0.3387,0.0268,1.4773,1.9297,-1.4930,5.0114,-0.3707,-0.6814,-0.2236,1.8422,6.5026,-49.6784,329.4391,-11.6575,8.9901,46.89571440,-114.03399150,1.22744322,957.13604736,
7.898748,0.2427,0.1767,0.8720,0.7093,0.1059,-0.7123,-0.0979,0.1575,-0.1602,-0.6100,6.8076,-49.1172,330.1449,-11.2954,12.7628,46.89571440,-114.03399150,1.22744322,957.13604736,
7.999184,0.0522,0.2553,0.5150,-1.2382,0.5672,-4.3975,0.1935,0.1503,-0.5136,-0.3904,6.2708,-49.8858,331.8267,-13.2389,12.1967,46.89571440,-114.03399150,1.22744322,957.13372803,
8.100530,-0.0639,0.2668,0.7227,-2.1908,0.4520,-2.3240,0.0640,0.3679,-0.3349,0.8906,5.4046,-49.6052,334.5150,-14.4249,9.8123,46.89572130,-114.03400120,1.14062858,957.13372803,
8.199695,0.0943,0.1892,1.1762,-0.4670,-0.1182,1.6879,-0.2315,0.0798,0.1009,2.1838,6.0756,-50.3372,335.0965,-13.7100,7.9544,46.89572130,-114.03400120,1.14062858,957.13372803,
8.300082,0.0343,0.4414,1.1057,-0.1131,1.8799,1.7253,0.3211,0.6030,0.4649,4.4286,6.3318,-49.3856,332.3947,-13.6720,6.2673,46.89572130,-114.03400120,1.14062858,957.13372803,
8.401095,0.0605,-0.2924,1.6509,0.2042,-5.5930,10.8166,1.2887,0.1972,-0.0870,-0.4636,6.1000,-48.5072,333.2817,-13.1604,10.9969,46.89572130,-114.03400120,1.14062858,957.13372803,
8.500941,0.0377,0.0661,0.8688,-0.8399,-1.4224,-0.9215,-0.1533,-0.4807,0.1084,2.2570,3.2574,-49.7760,330.8091,-15.9082,8.5535,46.89572130,-114.03400120,1.14062858,957.13372803,
8.601597,0.0657,0.0627,0.6440,-0.8503,-1.7142,-2.9539,0.5133,0.0444,0.4663,1.8666,3.2208,-49.6784,329.2312,-15.4019,9.2097,46.89572130,-114.03400120,1.14062858,957.13372803,
8.701683,0.1262,0.1364,0.6342,-0.3448,-1.2351,-3.1059,0.0465,-0.1249,0.0245,1.5128,1.0736,-49.4100,327.7953,-17.0179,9.8298,46.89572130,-114.03400120,1.14062858,957.13372803,
8.802764,0.0591,0.3179,0.5956,-0.9764,0.3777,-3.3925,0.1679,0.2214,-0.0875,1.3664,0.6832,-50.0566,328.0853,-17.8359,9.7913,46.89572130,-114.03400120,1.14062858,957.13372803,
8.902866,0.0711,0.4083,0.9605,-0.6189,0.8885,0.1306,0.0131,-0.3951,-0.5837,1.0980,0.8540,-49.6296,330.4419,-21.1728,8.3812,46.89572130,-114.03400120,1.14062858,957.13372803,
9.003154,-0.0414,0.6317,1.2043,-2.2231,2.3501,3.1298,0.6560,-0.8000,-0.1682,-1.9398,0.2440,-50.0444,334.7768,-22.2775,9.9094,46.89572130,-114.03400120,1.14062858,957.08978271,
9.103627,0.0971,0.3016,1.0091,-0.1756,-0.0114,2.2688,-0.2615,0.9761,0.0185,-2.6840,1.8056,-50.5324,335.4535,-20.0904,9.7081,46.89573000,-114.03401110,1.34044075,957.08978271,
9.203986,0.1114,0.2343,0.7721,-0.5717,-0.2830,-0.8918,0.3180,0.0453,0.9927,-1.6592,4.6726,-49.6052,332.3295,-16.1853,9.4945,46.89573000,-114.03401110,1.34044075,957.08978271,
9.304416,0.2268,0.2514,0.8112,0.2310,-0.0582,-1.5218,0.2502,-0.0549,0.6243,-1.1712,3.7210,-49.7394,327.7699,-17.2333,11.1503,46.89573000,-114.03401110,1.34044075,957.08978271,
9.404878,0.2081,0.2000,1.3062,0.9018,-1.0653,3.3122,0.2476,1.0131,0.1468,2.3424,2.0618,-50.2396,325.2242,-17.4940,8.2735,46.89573000,-114.03401110,1.34044075,957.08978271,
9.505248,0.1090,-0.0987,1.5995,0.5103,-3.4891,6.4816,-0.0499,-0.1918,-0.1856,5.3070,3.0256,-49.8126,324.6213,-16.2092,5.2720,46.89573000,-114.03401110,1.34044075,957.08978271,
9.605575,0.0009,0.1243,0.9002,-0.4773,-1.0210,-0.9804,-0.5230,-0.0563,0.0028,6.1122,3.4770,-49.9102,324.1382,-15.1308,4.2568,46.89573000,-114.03401110,1.34044075,957.08978271,
9.705735,0.0206,0.1653,0.6900,-0.2970,-0.4204,-2.8962,0.0618,-0.0859,0.1626,6.2952,3.3184,-49.3856,323.0699,-14.2449,4.4119,46.89573000,-114.03401110,1.34044075,957.08978271,
9.806267,0.1231,0.1455,0.9532,0.1227,-1.0604,-0.2068,0.4530,-0.2142,0.0518,4.9654,2.4400,-49.8248,322.7323,-15.8047,6.5576,46.89573000,-114.03401110,1.34044075,957.08978271,
9.906745,0.1494,0.1435,1.1506,0.6749,-1.2819,1.6884,0.0025,0.1100,-0.4618,4.6238,0.7564,-50.3006,323.7137,-17.3703,6.1858,46.89573000,-114.03401110,1.34044075,957.05395508,
10.007027,0.2609,0.0423,1.4824,1.9657,-1.6978,4.9042,-0.5371,0.1626,-0.8123,4.1114,2.2692,-49.1904,327.0045,-15.7415,5.4628,46.89573970,-114.03402410,1.56206167,957.05395508,
10.107628,0.1596,0.2947,0.6182,0.6941,0.7041,-4.0004,-0.4866,-0.1339,-0.4372,4.9410,2.0740,-49.9468,329.6870,-16.9723,3.5882,46.89573970,-114.03402410,1.56206167,957.05395508,
10.208172,0.0052,0.2054,0.5889,-0.4374,-0.4623,-3.5441,0.2704,0.2474,-0.4024,4.7214,4.1480,-50.0932,332.9184,-15.6330,4.0318,46.89573970,-114.03402410,1.56206167,957.05395508,
10.308621,0.0210,0.2798,0.8057,-0.2141,0.1530,-1.6227,0.1721,0.1032,-0.1357,4.7092,2.8670,-49.9224,334.0592,-16.9957,2.8406,46.89573970,-114.03402410,1.56206167,957.05395508,
10.409189,0.0141,0.2429,1.1433,-0.1637,-0.2537,1.8738,0.1546,0.3338,0.1088,6.0756,2.9280,-49.3978,334.2556,-17.3140,1.4849,46.89573970,-114.03402410,1.56206167,957.05395508,
10.508975,0.0559,0.1840,1.3466,0.6018,-0.6556,3.5123,-0.3444,-0.1507,0.1252,7.7104,2.8304,-49.2026,332.8039,-16.9533,0.2170,46.89573970,-114.03402410,1.56206167,957.05395508,
10.609452,0.1060,0.1090,1.0652,0.9176,-1.3568,1.1419,-0.1297,-0.0131,0.0928,6.9906,3.6600,-49.7028,332.3658,-16.1102,1.7962,46.89573970,-114.03402410,1.56206167,957.05395508,
10.709912,0.0461,0.1868,0.6241,0.2491,-0.4009,-3.4228,-0.1284,0.0911,0.0550,7.8690,3.8430,-49.9102,331.7665,-14.7376,1.8320,46.89573970,-114.03402410,1.56206167,957.01464844,
10.810348,0.1287,0.2013,0.8888,1.0403,-0.1313,-0.8856,0.0569,0.1258,-0.0307,7.5274,4.3554,-49.7882,331.4649,-13.9729,1.9653,46.89574270,-114.03402880,1.55601025,957.01464844,
10.910806,0.0123,0.1825,0.9836,-0.0493,-0.2669,-0.4321,0.0082,0.0564,-0.1795,8.2716,3.9040,-49.0684,331.9743,-14.8543,0.5780,46.89574270,-114.03402880,1.55601025,957.01464844,
11.011011,0.0467,0.2724,1.0797,0.4596,0.2719,0.6521,-0.3420,-0.0364,-0.4698,8.6986,3.3916,-49.5076,333.7887,-15.2919,-0.1150,46.89574270,-114.03402880,1.55601025,957.01464844,
11.111153,0.0107,0.1792,0.9810,0.3903,-0.3279,0.3774,0.0174,-0.0886,-0.3216,8.3082,5.4656,-49.1294,336.5993,-13.3305,-0.8520,46.89574270,-114.03402880,1.55601025,957.01464844,
11.211591,-0.0328,0.1509,0.8237,-0.2047,-0.3934,-1.4352,-0.0524,-0.1411,-0.2340,6.6246,6.1000,-49.4100,338.4042,-12.5327,0.0603,46.89574270,-114.03402880,1.55601025,957.01464844,
11.312034,-0.0541,0.2042,0.8638,-0.4487,0.1696,-1.2654,0.0660,-0.0039,-0.0737,6.9296,7.4176,-49.0562,339.4213,-12.4666,-0.1901,46.89574270,-114.03402880,1.55601025,957.01464844,
11.412378,-0.0239,0.2767,1.0151,0.0438,0.7294,0.2740,0.1693,0.1697,0.0615,7.7470,6.0268,-50.0566,339.1799,-13.4387,-0.8642,46.89574270,-114.03402880,1.55601025,957.01464844,
11.512745,0.0225,0.1494,1.1548,0.4402,-0.2415,1.3550,-0.7220,0.0294,0.1891,8.9426,6.2586,-49.2148,338.2969,-13.5711,-1.6102,46.89574270,-114.03402880,1.55601025,957.01464844,
11.613211,-0.0395,0.1782,0.8478,0.0147,-0.4351,-0.5820,0.3869,-0.1781,0.2087,8.9548,6.3562,-49.2148,337.1627,-12.7470,-1.2591,46.89574270,-114.03402880,1.55601025,957.01464844,
11.713425,-0.0606,0.1092,0.7941,-0.4525,-0.7127,-1.3896,0.1520,-0.0492,0.1234,8.1008,6.6246,-49.6174,336.7079,-11.7960,-0.5742,46.89574270,-114.03402880,1.55601025,957.01464844,
11.813674,0.0144,0.1478,0.7792,0.1233,-0.3563,-2.1994,-0.0264,-0.1510,0.0236,7.0516,5.5876,-49.7516,336.3018,-12.2273,0.1702,46.89574270,-114.03402880,1.55601025,957.01464844,
11.914534,0.0402,0.2085,0.8333,0.3686,0.0790,-1.3607,0.2339,-0.0236,-0.1405,6.7344,5.2826,-50.0688,336.7612,-12.6780,0.5665,46.89574270,-114.03402880,1.55601025,956.88751221,
12.015118,-0.0165,0.2250,1.1449,-0.2556,0.2427,1.7101,-0.3491,0.0494,-0.1581,6.4660,6.4538,-49.0806,338.3202,-11.8395,0.5668,46.89575980,-114.03404770,1.33975744,956.88751221,
12.115189,-0.0225,0.0260,1.2674,-0.2648,-0.9355,2.9056,-0.3644,-0.0637,-0.3925,5.3436,9.1744,-48.8854,340.5362,-8.6061,1.1624,46.89575980,-114.03404770,1.33975744,956.88751221,
12.215536,0.0739,0.0974,1.0142,0.4880,-0.0699,0.4674,0.1946,-0.0245,-0.3232,3.1354,10.4920,-49.2514,342.3938,-7.5474,1.8570,46.89575980,-114.03404770,1.33975744,956.88751221,
12.315786,-0.0986,0.1642,0.6859,-0.9586,0.3910,-3.1875,0.0074,0.2032,-0.2425,4.1236,9.5038,-48.7634,344.3129,-8.7192,0.5239,46.89575980,-114.03404770,1.33975744,956.88751221,
12.416314,-0.0167,0.1677,1.0147,-0.1034,0.3089,0.2627,0.4797,-0.0896,0.0753,4.9044,9.5892,-48.7634,344.6516,-9.4692,0.2310,46.89575980,-114.03404770,1.33975744,956.88751221,
12.516618,0.0339,0.2415,1.0483,0.3800,0.4944,0.5392,0.1068,0.0720,0.2673,5.4656,7.2590,-49.2636,343.3142,-12.1592,-0.2998,46.89575980,-114.03404770,1.33975744,956.88751221,
12.617046,-0.1061,0.0622,1.2476,-0.6904,-1.1243,3.5418,0.0991,0.2874,0.0259,5.4168,8.9060,-49.2148,343.2439,-10.2798,-0.1244,46.89575980,-114.03404770,1.33975744,956.88751221,
12.717272,-0.0601,0.0629,0.8794,-0.4443,-0.6771,-1.0550,-0.3317,-0.0835,0.0720,5.6486,9.2110,-48.6780,342.7354,-9.9320,-0.3323,46.89575980,-114.03404770,1.33975744,956.88751221,
12.817436,-0.0695,0.0874,0.7418,-0.5009,-0.2646,-2.1801,0.1209,0.1032,0.2730,6.1732,9.9064,-49.0806,341.8539,-7.5749,-0.5732,46.89575980,-114.03404770,1.33975744,956.88751221,
12.918065,0.0734,0.1117,0.8102,0.7116,-0.0135,-1.8889,0.0529,-0.3711,-0.0096,5.7218,9.2110,-49.4222,340.8533,-7.9983,0.6837,46.89575980,-114.03404770,1.33975744,956.85864258,
13.018664,0.0833,0.0643,1.2079,0.5360,-0.1023,1.8288,-0.2555,-0.0293,-0.3313,4.0016,10.1382,-48.3120,341.8695,-7.0308,1.3887,46.89577270,-114.03405450,1.38727617,956.85864258,
13.118627,0.0466,0.0495,1.3967,0.5414,-0.1983,3.3879,-0.4061,0.1146,-0.5118,3.9040,11.3216,-48.0680,344.0942,-6.2777,1.1336,46.89577270,-114.03405450,1.38727617,956.85864258,
13.218901,-0.0333,0.1160,0.9229,-0.1200,0.4097,-0.5673,-0.0013,0.1385,-0.0467,4.3676,11.2728,-48.7146,345.5618,-5.8861,-0.4618,46.89577270,-114.03405450,1.38727617,956.85864258,
13.319207,-0.0010,0.1437,0.7561,0.1975,0.5957,-2.3549,0.0559,0.0024,0.0266,4.3798,11.1874,-48.1778,345.4773,-6.1445,-0.5879,46.89577270,-114.03405450,1.38727617,956.85864258,
13.420117,-0.0266,0.1713,0.8605,0.0734,0.8271,-1.3493,0.1693,0.1699,0.1078,5.3436,11.3826,-48.2876,345.0282,-6.6546,-1.3168,46.89577270,-114.03405450,1.38727617,956.85864258,
13.519995,-0.0470,0.1697,1.0320,-0.3054,0.6901,0.3001,0.2391,-0.2364,0.2964,6.3806,10.0284,-48.5560,344.0222,-7.9127,-1.8397,46.89577270,-114.03405450,1.38727617,956.85864258,
13.620457,0.0024,0.0193,1.3824,0.2872,-0.8295,3.8196,-0.0573,0.1456,0.1033,6.2098,10.2724,-48.7512,342.9631,-7.6050,-0.8329,46.89577270,-114.03405450,1.38727617,956.85864258,
13.720735,-0.0283,0.0875,0.9508,0.0165,-0.2784,-0.3691,0.1170,-0.0860,0.2441,6.4782,9.0158,-49.1172,341.8275,-8.1519,-1.0943,46.89577270,-114.03405450,1.38727617,956.85864258,
13.821202,-0.0556,0.0927,0.8445,-0.3877,-0.2329,-1.2935,-0.0624,-0.0738,0.1804,6.2708,9.8210,-48.7634,340.8757,-7.8014,-0.4719,46.89577270,-114.03405450,1.38727617,956.85864258,
13.921592,0.0377,0.1380,0.9064,0.4567,0.3686,-0.8894,0.0374,-0.2160,0.0587,5.9902,9.8942,-48.5560,339.8754,-7.3277,0.1270,46.89577270,-114.03405450,1.38727617,956.85864258,
14.021782,0.0001,0.1475,1.0430,-0.0275,0.4273,0.3853,0.2180,-0.1376,-0.1089,4.8678,9.3940,-49.6174,340.1181,-7.9301,0.9792,46.89578520,-114.03406110,1.43017697,956.85864258,
14.122306,-0.0304,0.1620,1.0753,-0.5606,0.4267,0.9077,0.1079,-0.0191,-0.2221,3.8918,7.9178,-49.1294,341.1868,-9.1775,1.3783,46.89578520,-114.03406110,1.43017697,956.85864258,
14.222544,-0.0526,0.0741,1.0981,-0.5464,-0.5106,1.4343,0.0841,0.2923,0.1281,5.5510,9.4550,-49.6174,342.1050,-8.0992,0.1780,46.89578520,-114.03406110,1.43017697,956.85864258,
14.322745,0.0412,0.1529,0.7881,0.6559,0.3505,-2.0446,-0.1282,-0.0088,0.1947,6.2098,9.2598,-49.1050,340.5402,-8.5839,-0.7090,46.89578520,-114.03406110,1.43017697,956.85864258,
14.423123,0.0041,0.1038,0.9118,0.2557,0.0486,-0.9277,-0.1887,0.0201,0.1180,6.9662,10.2602,-48.8610,339.8105,-7.1672,-0.5150,46.89578520,-114.03406110,1.43017697,956.85864258,
14.523501,0.0055,0.1481,0.9978,0.2768,0.4918,-0.1707,0.1118,-0.0457,0.2228,7.1492,10.0162,-48.7634,338.7767,-7.3600,-0.6884,46.89578520,-114.03406110,1.43017697,956.85864258,
14.623862,0.0594,0.1751,1.0643,0.5822,0.9985,0.5978,-0.2710,-0.0035,0.0943,6.9784,10.1870,-48.2266,337.4798,-7.6749,-0.5298,46.89578520,-114.03406110,1.43017697,956.85864258,
14.724033,-0.1085,0.0039,1.0952,-1.0821,-0.8629,1.4604,0.0468,0.1222,0.0465,6.1000,11.3582,-49.0440,338.4290,-5.5005,0.2239,46.89578520,-114.03406110,1.43017697,956.85864258,
14.824472,-0.0597,0.0396,0.9579,-0.5134,-0.1372,-0.0635,0.0630,-0.1619,-0.1034,5.9780,12.0048,-48.2754,338.4295,-4.7506,0.5626,46.89578520,-114.03406110,1.43017697,956.85864258,
14.924798,-0.0071,0.0734,0.8681,-0.1236,0.1574,-1.2927,0.2286,-0.2527,-0.1290,6.5270,11.9560,-48.9220,338.7179,-5.1766,0.9102,46.89578520,-114.03406110,1.43017697,956.85864258,
15.025233,0.0106,0.1039,0.9571,-0.1190,0.1816,-0.5246,0.3164,-0.2618,-0.3330,4.7214,10.9434,-48.8244,339.9496,-6.7477,1.8499,46.89578520,-114.03406110,1.43017697,956.81237793,
15.125446,0.0096,0.0987,1.0407,-0.5200,0.2872,0.7299,-0.2336,-0.0519,-0.4049,3.0256,10.3822,-49.5808,342.5402,-7.4608,2.7217,46.89579650,-114.03406890,1.45919716,956.81237793,
15.225787,-0.0290,0.0246,1.1506,-0.6427,-0.3075,1.8446,-0.0361,-0.0409,0.1148,3.4770,13.2004,-48.2266,344.2006,-4.2334,1.7301,46.89579650,-114.03406890,1.45919716,956.81237793,
15.326134,0.0853,0.0803,0.8652,0.4921,0.2656,-1.0869,0.2447,0.0263,0.0094,3.1964,13.4322,-48.6414,343.2805,-4.7392,3.4035,46.89579650,-114.03406890,1.45919716,956.81237793,
15.426758,0.0034,0.0927,0.8860,-0.2676,0.3001,-1.3962,0.0130,0.0259,-0.0835,3.2452,12.5416,-47.8118,343.4289,-5.4683,2.4642,46.89579650,-114.03406890,1.45919716,956.81237793,
15.526998,0.0023,0.0746,1.2127,-0.1296,0.0560,1.7969,0.1932,0.1919,0.0102,4.5140,11.8462,-48.3730,343.5616,-5.9332,1.7533,46.89579650,-114.03406890,1.45919716,956.81237793,
15.627584,-0.0439,0.1936,1.1216,-0.2484,0.9802,1.4054,0.1938,0.3128,0.1694,5.9048,9.9796,-48.5438,342.4449,-8.0332,0.2907,46.89579650,-114.03406890,1.45919716,956.81237793,
15.727474,-0.0156,0.0268,1.1154,-0.2675,-0.9691,1.3291,0.1328,-0.2703,0.2670,6.3562,9.8332,-48.8732,341.2965,-8.3063,0.4580,46.89579650,-114.03406890,1.45919716,956.81237793,
15.828597,-0.0001,0.0575,0.7979,-0.0566,-0.6669,-1.4737,-0.0743,0.1292,0.0899,5.4534,9.3696,-48.9830,340.4247,-8.3726,1.5864,46.89579650,-114.03406890,1.45919716,956.81237793,
15.928557,-0.0457,0.0836,0.8604,-0.7048,-0.1873,-1.3103,0.0590,-0.2983,0.0506,5.0874,9.6014,-49.3002,340.0579,-7.7136,1.9069,46.89579650,-114.03406890,1.45919716,956.81237793,
16.028808,-0.0558,0.1103,0.9406,-0.8747,-0.0644,-0.5381,0.1166,0.0141,-0.0533,4.8556,10.1382,-48.6414,340.0988,-8.1562,2.6997,46.89579650,-114.03406890,1.45919716,956.78582764,
16.129209,-0.0648,0.1601,1.1032,-0.9981,0.5572,1.2142,0.0384,0.0218,-0.1404,4.5018,9.3696,-48.6658,340.7836,-8.3064,2.6240,46.89580850,-114.03407580,1.52819860,956.78582764,
16.231046,-0.0113,0.0322,1.0869,-0.3936,-0.7077,1.2164,0.0706,0.1644,0.1128,4.3798,10.1870,-48.3120,341.1072,-6.9533,2.0071,46.89580850,-114.03407580,1.52819860,956.78582764,
16.329916,0.0240,0.0824,0.9708,-0.1203,-0.0574,-0.2517,-0.1049,-0.0580,0.2007,4.0138,10.1504,-47.8972,340.1964,-6.5506,2.7247,46.89580850,-114.03407580,1.52819860,956.78582764,
16.430483,-0.0467,0.1184,0.7820,-0.7993,0.2715,-2.2276,0.0829,-0.1458,0.1352,4.4652,10.0894,-48.8488,339.1966,-6.9521,2.6487,46.89580850,-114.03407580,1.52819860,956.78582764,
16.530593,-0.0093,0.1275,1.0510,-0.4860,0.2338,0.4540,0.1727,0.0161,0.3014,4.9288,9.8698,-48.8610,337.9705,-7.4236,2.8972,46.89580850,-114.03407580,1.52819860,956.78582764,
16.630737,0.0473,0.2141,1.1755,0.0490,0.9378,1.7638,-0.0499,0.0931,0.3405,5.6608,8.3936,-48.9098,335.8563,-8.4309,2.8377,46.89580850,-114.03407580,1.52819860,956.78582764,
16.731094,-0.1473,0.0196,1.1027,-1.7751,-0.9007,1.2677,0.1428,0.0411,0.4692,6.2708,8.6498,-48.3730,334.2423,-7.7347,2.3595,46.89580850,-114.03407580,1.52819860,956.78582764,
16.831470,0.0243,0.0394,1.0036,-0.0341,-0.5157,-0.0327,-0.2175,-0.1664,0.3057,6.4294,8.4546,-49.5564,331.4857,-7.3187,2.6146,46.89580850,-114.03407580,1.52819860,956.78582764,
16.931729,0.0034,0.0943,0.7515,-0.2692,0.0094,-2.4297,0.0344,-0.0440,0.3062,6.3196,8.0032,-48.6048,329.4352,-6.9590,2.5623,46.89580850,-114.03407580,1.52819860,956.74993896,
17.032506,0.0408,0.0912,0.9296,-0.0497,-0.0476,-0.7913,-0.0361,-0.0985,0.1161,6.1976,7.8934,-49.0318,328.1140,-7.0593,3.4152,46.89582050,-114.03408070,1.39784479,956.74993896,
17.132972,0.0585,0.1295,1.0627,-0.0020,0.3303,0.5248,-0.1244,0.0463,-0.0762,5.3680,7.0760,-48.8366,327.9683,-7.2906,3.7370,46.89582050,-114.03408070,1.39784479,956.74993896,
17.234500,0.0646,-0.0400,1.4080,0.4011,-0.8960,4.0018,-0.6143,0.3930,-0.2793,5.6852,9.4184,-47.6044,329.0225,-4.8670,2.7250,46.89582050,-114.03408070,1.39784479,956.74993896,
17.333924,0.0903,0.0261,0.9443,0.7853,-0.0486,-0.4988,-0.1354,0.0254,0.0408,7.2346,10.6018,-47.1652,329.3598,-3.3516,1.0919,46.89582050,-114.03408070,1.39784479,956.74993896,
17.434194,0.0154,0.0852,0.8132,0.1712,0.5481,-1.8135,0.0663,0.1009,-0.0079,8.1374,12.3342,-47.3238,329.3096,-2.8844,0.8475,46.89582050,-114.03408070,1.39784479,956.74993896,
17.534577,0.0005,0.1071,0.9046,-0.0104,0.6642,-1.0052,0.2071,0.0413,0.1109,8.3448,11.3460,-47.4702,329.1462,-3.6148,0.4524,46.89582050,-114.03408070,1.39784479,956.74993896,
17.635062,-0.0088,0.1283,1.0516,0.0647,0.5702,0.3762,0.3234,0.0712,0.3018,8.2106,9.8698,-47.7142,328.1468,-5.0984,0.4988,46.89582050,-114.03408070,1.39784479,956.74993896,
17.735053,0.1056,-0.1078,1.5480,1.0489,-1.4780,3.4173,-0.7733,-0.7136,-0.0851,7.5274,9.6136,-47.6166,326.6942,-6.2948,1.9709,46.89582050,-114.03408070,1.39784479,956.74993896,
17.835506,-0.0069,0.0810,0.8576,-0.3553,0.0507,-1.1545,-0.0152,-0.1297,0.1684,7.0882,10.2968,-48.0192,326.1972,-5.3383,2.8566,46.89582050,-114.03408070,1.39784479,956.74993896,
17.935951,-0.0743,-0.0230,1.0094,-1.1841,-0.5580,0.3631,-0.0377,-0.1362,0.1538,5.3802,10.3944,-47.5800,325.7432,-3.4015,2.9893,46.89582050,-114.03408070,1.39784479,956.74993896,
18.036349,0.0344,0.0767,0.9167,-0.1159,0.4314,-0.9532,0.0603,-0.1626,0.2265,5.0874,10.2724,-47.5800,324.3058,-3.5532,3.1066,46.89582050,-114.03408070,1.39784479,956.74822998,
18.137039,0.0397,0.1092,1.0097,-0.1606,0.5952,-0.1005,0.1274,-0.1257,0.0123,4.8678,10.1504,-48.2144,323.5882,-4.4113,3.7997,46.89583330,-114.03409000,1.46256483,956.74822998,
18.237408,0.1536,-0.0530,1.1845,0.7867,-0.4961,0.7755,-0.8247,-0.0828,-0.2352,3.9650,9.6014,-47.7996,323.8438,-4.4689,4.5168,46.89583330,-114.03409000,1.46256483,956.74822998,
18.337775,0.0386,0.0371,0.9182,0.2294,0.2386,-0.6313,0.0109,0.4575,0.2251,6.0512,11.3094,-46.7016,323.8547,-2.1656,1.9890,46.89583330,-114.03409000,1.46256483,956.74822998,
18.438018,0.0411,0.0446,0.7961,0.4237,0.3357,-2.0846,-0.0144,-0.0228,0.2710,7.5396,10.8214,-46.8358,322.0691,-2.2721,1.1996,46.89583330,-114.03409000,1.46256483,956.74822998,
18.538515,0.0730,0.0981,0.7834,0.5150,0.6885,-2.2578,0.1492,-0.0574,0.1446,7.1248,9.3086,-46.9822,320.5404,-3.0739,1.9114,46.89583330,-114.03409000,1.46256483,956.71295166,
18.638668,0.0372,0.0707,1.1478,0.1032,0.3638,1.4013,0.2198,0.0871,0.1440,6.7100,9.9064,-46.6406,320.0049,-3.4622,2.2926,46.89583560,-114.03409270,1.46036637,956.71295166,
18.739083,-0.0106,0.0857,1.0988,-0.2728,0.4872,1.1461,0.0835,0.2142,0.2765,8.2228,8.6010,-46.9090,318.7935,-4.6201,1.2451,46.89583560,-114.03409270,1.46036637,956.71295166,
18.839444,-0.0228,-0.0307,1.0108,-0.5090,-1.1545,1.5221,0.3040,0.0864,0.3883,8.2838,9.2598,-46.6772,317.5294,-4.0432,1.5118,46.89583560,-114.03409270,1.46036637,956.71295166,
18.939749,-0.0492,-0.0835,1.1138,-0.5305,-0.9141,0.9235,-0.3325,-0.0736,0.2454,8.2106,9.6868,-47.4092,315.8453,-2.9671,2.3222,46.89583560,-114.03409270,1.46036637,956.70257568,
19.040153,0.0407,0.0735,0.8308,0.0324,0.6330,-1.9873,0.0102,-0.3018,0.3718,8.4546,8.9060,-46.5796,313.5192,-2.6384,2.0494,46.89584260,-114.03409980,1.52985191,956.70257568,
19.140916,0.0698,0.0420,1.0143,0.1966,0.1325,0.1748,0.0146,0.0154,0.0660,6.4904,8.4302,-46.4698,312.3768,-2.6417,4.0497,46.89584260,-114.03409980,1.52985191,956.70257568,
19.241236,0.1154,0.0141,1.2251,0.6595,-0.2811,1.9455,0.1562,-0.4562,-0.3131,5.7340,9.5526,-45.9086,312.7539,-2.7329,4.8500,46.89584260,-114.03409980,1.52985191,956.70257568,
19.341496,0.0548,-0.0675,1.3175,-0.5210,-1.0781,2.5728,-0.2471,0.1070,0.1551,3.7210,7.5762,-46.9090,313.9469,-3.8350,6.0699,46.89584260,-114.03409980,1.52985191,956.70257568,
19.441945,0.0935,0.0068,1.0169,0.1493,-0.2954,-0.0154,-0.1397,-0.2204,0.1998,5.6608,7.4420,-45.6524,312.7812,-3.8349,4.9309,46.89584260,-114.03409980,1.52985191,956.70257568,
19.542440,0.0109,0.0387,0.8161,-0.4415,0.1737,-1.8637,-0.1755,0.1293,-0.0426,5.9536,8.6620,-45.5060,312.0469,-3.3494,4.7301,46.89584260,-114.03409980,1.52985191,956.70257568,
19.642676,0.0374,0.0099,1.0835,-0.1694,-0.1775,0.4118,0.2140,0.1225,-0.0161,5.9292,8.3814,-45.6280,312.1140,-3.5636,4.1394,46.89584260,-114.03409980,1.52985191,956.70257568,
19.743482,0.0388,0.0467,1.2103,0.3110,-0.4957,2.0213,0.2464,0.5191,0.0897,7.3078,6.3440,-45.2742,311.6752,-5.5120,2.3953,46.89584260,-114.03409980,1.52985191,956.70257568,
19.843996,0.1549,-0.1030,1.2434,1.3286,-1.7306,2.4431,0.0498,-0.0455,0.0059,8.0886,4.8922,-44.1518,311.0501,-5.8407,1.7151,46.89584260,-114.03409980,1.52985191,956.70257568,
19.944202,0.0701,-0.0085,0.9381,0.1752,-0.5719,-0.5941,-0.1537,-0.0875,-0.2465,7.4786,5.6486,-44.1274,311.8935,-4.4142,4.2146,46.89584260,-114.03409980,1.52985191,956.70257568,
20.044903,0.0439,0.0756,0.8214,-0.2570,0.3180,-1.8122,-0.0225,-0.1964,-0.0182,7.9910,7.0882,-43.4442,312.6104,-3.7005,4.1218,46.89584260,-114.03409980,1.52985191,956.65521240,
20.145408,0.0723,0.0581,0.7951,0.0542,0.2405,-2.2350,0.1969,-0.2510,-0.1423,6.9662,6.1610,-43.1514,313.0194,-4.3739,4.7908,46.89585240,-114.03411210,1.52823865,956.65521240,
20.245798,0.2101,0.0428,1.2404,1.1646,-0.1510,1.5219,-0.0642,-0.3106,-0.3163,6.1122,4.9044,-42.1144,313.9202,-5.4869,6.4783,46.89585240,-114.03411210,1.52823865,956.65521240,
20.345951,0.1694,0.0171,1.3056,0.9722,-0.2013,3.0351,-0.3911,0.1929,-0.4700,5.0020,5.0752,-41.1506,316.0011,-4.7005,6.2146,46.89585240,-114.03411210,1.52823865,956.65521240,
20.446429,0.1873,0.1122,0.9206,0.9198,0.5720,-0.1994,-0.2107,0.2357,-0.2562,6.2952,6.7832,-40.5772,317.6941,-4.1752,5.8792,46.89585240,-114.03411210,1.52823865,956.65521240,
20.546925,0.0752,0.1266,0.8195,-0.0006,0.8163,-1.6196,0.0055,0.0952,-0.1988,6.1000,7.3444,-38.6496,319.5136,-3.7018,5.3327,46.89585240,-114.03411210,1.52823865,956.65521240,
20.647105,0.0628,0.1235,0.8974,-0.1750,0.6862,-1.0752,0.2440,0.0984,0.0789,6.8564,7.1492,-38.4422,320.1182,-4.2649,4.9918,46.89585240,-114.03411210,1.52823865,956.65521240,
20.747717,0.1437,0.1272,1.1299,0.5553,0.6384,1.2480,0.1295,-0.0617,0.0585,7.3200,5.5632,-37.6492,319.5275,-6.0946,5.1647,46.89585240,-114.03411210,1.52823865,956.65521240,
20.848198,0.0516,-0.0308,1.2943,-0.0525,-0.8905,3.0086,-0.0767,0.0344,0.0084,8.0764,6.2220,-36.5756,319.5419,-5.4942,4.9279,46.89585240,-114.03411210,1.52823865,956.65521240,
20.949436,0.0849,0.0501,0.8538,-0.0270,-0.1416,-1.3580,-0.0371,-0.2287,0.2197,7.8568,5.4900,-35.0994,318.4487,-6.1605,4.6063,46.89585240,-114.03411210,1.52823865,956.64129639,
21.049043,0.0914,0.0220,0.8429,-0.0063,-0.5158,-1.2007,0.1668,0.2949,0.1669,7.6616,6.2220,-33.9160,317.7575,-5.1566,5.5712,46.89585910,-114.03412490,1.26220250,956.64129639,
21.149583,0.0838,0.0794,0.8375,0.0846,0.2642,-1.5985,-0.1996,0.1509,-0.0405,7.9422,5.9048,-33.0742,317.4115,-4.8547,5.0887,46.89585910,-114.03412490,1.26220250,956.64129639,
21.249926,0.0407,0.0589,0.9614,-0.2258,0.1796,-0.5441,0.1448,-0.0532,0.0186,9.1256,5.9658,-31.5980,317.3478,-4.6751,3.9452,46.89585910,-114.03412490,1.26220250,956.64129639,
21.350252,0.2171,-0.0078,1.2477,1.3502,-0.4161,1.1989,-0.6021,-0.1159,-0.1941,9.2110,5.9658,-32.0250,316.9556,-5.1641,5.1762,46.89585910,-114.03412490,1.26220250,956.64129639,
21.450522,0.1428,0.0983,0.8624,0.7308,0.4656,-1.2614,-0.0477,0.0517,-0.0647,9.9918,7.2346,-31.9884,317.1585,-4.3864,4.4743,46.89585910,-114.03412490,1.26220250,956.64129639,
21.551243,0.0311,0.0950,0.8514,-0.3401,0.5323,-1.6330,-0.2174,0.0659,-0.1334,9.1622,7.6128,-31.5492,317.9315,-3.7992,4.2712,46.89585910,-114.03412490,1.26220250,956.64129639,
21.651413,0.0338,0.0946,0.9222,-0.1897,0.5979,-0.7749,0.1091,0.1173,0.1514,9.7844,8.0520,-31.3296,318.0380,-3.3182,3.6542,46.89585910,-114.03412490,1.26220250,956.64129639,
21.751860,0.1023,0.1381,1.1487,0.5049,0.9038,0.6715,0.2417,-0.1384,0.3331,10.4554,6.9296,-31.3662,316.4577,-4.3505,3.5033,46.89585910,-114.03412490,1.26220250,956.64129639,
21.852338,0.1296,0.0161,1.3874,1.0894,-0.1481,2.5649,-0.1607,-0.2151,-0.1018,10.5042,6.5514,-32.1226,314.6451,-5.4765,3.9819,46.89585910,-114.03412490,1.26220250,956.64129639,
21.952636,-0.0241,-0.0246,1.0780,-0.9779,-0.9432,0.8154,0.0110,-0.4019,-0.0490,10.1870,6.2464,-32.3422,314.9857,-5.8673,5.0133,46.89585910,-114.03412490,1.26220250,956.64361572,
22.053088,-0.0410,0.0946,0.5887,-0.6055,0.6585,-4.0183,-0.0645,0.0127,0.2292,9.3574,5.5876,-33.0986,313.7567,-2.9795,1.7557,46.89586740,-114.03413810,1.29379344,956.64361572,
22.153546,0.0570,-0.0004,0.9530,0.1312,0.0335,-0.5269,-0.2204,-0.1843,0.1367,8.1740,6.2952,-32.6472,312.7277,-1.3448,3.0169,46.89586740,-114.03413810,1.29379344,956.64361572,
22.253848,0.0859,0.1351,0.8485,0.4397,1.3644,-1.4768,0.1658,0.1683,0.0393,9.2964,5.9658,-32.6594,311.9459,-1.1106,2.9517,46.89586740,-114.03413810,1.29379344,956.64361572,
22.354183,0.0107,0.0747,1.1636,-0.3933,0.3511,1.6701,0.1335,0.1575,-0.2126,9.5282,6.2708,-31.9152,312.5743,-3.4015,3.7999,46.89586740,-114.03413810,1.29379344,956.64361572,
22.454543,0.0159,-0.1913,1.7317,-0.0305,-2.1832,7.0819,-0.4971,-0.0593,-0.1741,9.8332,7.5884,-31.5492,313.5165,-3.7600,2.4706,46.89586740,-114.03413810,1.29379344,956.64361572,
22.554725,0.0161,-0.1049,1.2065,-0.0363,-1.4633,2.1280,0.4550,0.0550,0.2431,10.7482,8.0642,-31.3296,312.7228,-4.1195,1.7343,46.89586740,-114.03413810,1.29379344,956.64361572,
22.655058,0.0625,0.0859,0.7560,0.6156,0.0324,-2.3896,0.0984,0.1109,0.0497,11.1386,5.7218,-31.1954,311.0794,-6.3892,0.7637,46.89586740,-114.03413810,1.29379344,956.64361572,
22.755446,0.0419,0.1228,0.7793,0.4450,0.2891,-2.1001,0.1984,0.1455,0.2006,11.4314,5.6730,-30.7684,310.2795,-6.9737,0.4219,46.89586740,-114.03413810,1.29379344,956.64361572,
22.855656,0.0737,0.1541,0.9577,0.7406,0.3530,-0.3593,0.3418,0.0672,0.1570,12.1390,5.0142,-30.6952,309.2627,-8.2879,0.4517,46.89586740,-114.03413810,1.29379344,956.64361572,
22.956031,0.0526,0.1918,1.1142,0.5203,0.6819,1.2459,-0.0121,-0.0123,-0.0326,12.8466,4.3432,-31.2442,308.6487,-9.3731,0.2754,46.89586740,-114.03413810,1.29379344,956.64361572,
23.056607,-0.0133,0.0232,1.0898,-0.1616,-1.1151,1.1023,0.3205,0.2307,-0.0008,12.9076,5.0874,-31.1222,309.4540,-9.2397,0.8465,46.89587790,-114.03414940,1.27932346,956.64361572,
23.156922,-0.0102,0.0436,0.9902,-0.1966,-0.8473,-0.0145,-0.1650,-0.0249,0.0577,12.5172,5.2216,-31.7566,309.7001,-9.0761,1.1490,46.89587790,-114.03414940,1.27932346,956.64361572,
23.257399,0.0369,0.0975,0.8029,0.2016,-0.1768,-1.8989,-0.2347,-0.1100,0.1079,11.6022,4.5750,-31.6590,309.2181,-8.2325,1.4981,46.89587790,-114.03414940,1.27932346,956.64361572,
23.357772,0.0870,0.1319,0.8487,0.5663,0.2776,-1.4751,-0.0806,-0.0472,-0.0160,11.0532,5.9048,-30.9758,308.8528,-7.5304,2.2696,46.89587790,-114.03414940,1.27932346,956.64361572,
23.458176,0.0629,0.1649,0.8846,0.3294,0.5677,-1.0985,0.1343,-0.0550,-0.1003,11.8096,5.7828,-31.5126,309.2055,-7.7620,2.2739,46.89587790,-114.03414940,1.27932346,956.64361572,
23.558208,0.0933,0.1061,1.0408,0.4806,-0.0643,0.5054,0.0235,-0.0507,-0.1974,11.1020,5.4412,-31.6224,310.3393,-8.3039,2.7037,46.89587790,-114.03414940,1.27932346,956.64361572,
23.659776,0.0787,0.0112,1.1898,0.3505,-0.9014,2.2536,0.2317,0.1967,-0.3350,11.1020,7.6494,-30.8172,313.5168,-6.7872,1.9640,46.89587790,-114.03414940,1.27932346,956.64361572,
23.760364,0.0614,0.0578,0.9308,0.3301,-0.5026,-0.5329,0.1711,0.0011,-0.0795,9.9430,7.5274,-31.0246,315.0540,-7.5595,1.9266,46.89587790,-114.03414940,1.27932346,956.64361572,
23.860676,0.0229,0.1644,0.6646,0.1053,0.3121,-3.2454,0.1985,0.0575,0.0842,9.9064,6.0390,-31.5980,314.9547,-8.8497,1.4249,46.89587790,-114.03414940,1.27932346,956.64361572,
23.961306,0.0945,0.2009,0.9121,0.6029,0.5210,-0.8578,0.1599,-0.0861,0.1752,9.8088,5.1850,-32.6838,314.5114,-9.5697,1.6110,46.89587790,-114.03414940,1.27932346,956.61474609,
24.062285,0.0922,0.2386,1.1066,0.1670,0.4477,1.2805,0.1410,0.0289,-0.0915,10.3944,4.4164,-33.4524,313.9810,-12.9011,4.8264,46.89588930,-114.03416170,1.21802509,956.61474609,
24.162105,0.0629,0.1090,1.2777,0.1131,-0.7215,2.6183,-0.3398,-0.1912,-0.2635,10.8702,4.3676,-33.5744,314.5850,-12.9579,4.3329,46.89588930,-114.03416170,1.21802509,956.61474609,
24.262413,-0.0489,0.0523,1.0829,-1.1047,-1.4010,1.1181,0.0791,0.0289,0.1956,10.5896,4.5994,-34.4040,314.9439,-12.9425,4.3589,46.89588930,-114.03416170,1.21802509,956.61474609,
24.362946,-0.0150,0.1635,0.7451,-0.5148,-0.1069,-2.1360,0.1746,0.1340,0.4032,11.1630,2.3668,-34.6968,312.9606,-11.2039,2.5339,46.89588930,-114.03416170,1.21802509,956.61474609,
24.463528,0.0388,0.1603,0.8856,-0.0506,0.0133,-1.0177,-0.1173,-0.1539,0.1504,11.0044,1.8788,-35.8680,311.3331,-11.0875,3.1734,46.89588930,-114.03416170,1.21802509,956.61474609,
24.563836,0.0506,0.1721,0.9347,-0.0099,0.1950,-0.4999,-0.0250,0.1353,0.0180,11.8462,2.7816,-35.9534,310.8503,-10.4903,3.5113,46.89588930,-114.03416170,1.21802509,956.61474609,
24.664242,0.0503,0.2015,1.3090,0.0301,0.2705,3.4359,0.1777,-0.1880,-0.2528,11.4802,3.1964,-36.2584,311.5649,-10.1976,3.9099,46.89588930,-114.03416170,1.21802509,956.61474609,
24.764511,0.1105,0.0755,1.0995,0.6050,-0.6889,1.4238,0.0475,0.2317,-0.2559,11.7608,4.2334,-36.2340,312.9471,-9.6590,3.7125,46.89588930,-114.03416170,1.21802509,956.61474609,
24.865033,0.1093,0.1179,0.9276,0.7185,-0.1279,-0.7435,-0.1834,-0.0289,-0.2791,12.2000,3.9040,-36.7830,314.0509,-9.4785,3.5135,46.89588930,-114.03416170,1.21802509,956.61474609,
24.965180,0.0323,0.1922,0.7623,-0.1171,0.5242,-2.3647,0.0660,-0.0660,-0.1328,12.5660,5.1118,-37.9176,315.0772,-9.6536,3.1393,46.89588930,-114.03416170,1.21802509,956.58239746,
25.065521,0.0062,0.1894,1.0880,-0.3314,0.3774,0.3615,0.1296,0.0104,-0.0564,13.1882,4.7092,-38.4544,315.6221,-10.4995,3.0069,46.89589910,-114.03417300,1.20529532,956.58239746,
25.165762,-0.0390,0.1294,1.2742,-0.8253,0.1265,1.9075,-0.0550,-0.0944,0.1838,14.8230,5.0508,-39.4182,315.0738,-11.4226,1.7809,46.89589910,-114.03417300,1.20529532,956.58239746,
25.266842,-0.0673,0.2383,0.7944,-0.8679,0.7362,-1.8127,-0.0397,-0.0673,0.3625,15.1646,4.6970,-40.2844,313.0162,-12.2503,1.4593,46.89589910,-114.03417300,1.20529532,956.58239746,
25.366563,-0.0353,0.1928,0.7103,-0.6772,0.0469,-2.4901,0.0257,0.0206,0.4570,15.1646,4.7092,-40.0648,310.7527,-11.6486,1.4746,46.89589910,-114.03417300,1.20529532,956.58239746,
25.467498,0.1091,0.0817,1.0960,0.5988,-0.8961,1.0748,0.0984,-0.1959,0.0898,14.5180,5.3436,-41.4190,309.2279,-11.4821,3.2909,46.89589910,-114.03417300,1.20529532,956.58239746,
25.567693,0.1253,0.2032,0.8491,0.7068,-0.0209,-1.2143,-0.2545,-0.1388,-0.1733,13.7494,5.3558,-41.4190,309.8580,-14.4384,2.5589,46.89589910,-114.03417300,1.20529532,956.58239746,
25.668042,0.1226,0.2153,0.9087,0.7577,0.3002,-0.5539,0.2007,0.0343,-0.1790,12.4196,6.7588,-41.6874,311.3276,-11.9789,2.9982,46.89589910,-114.03417300,1.20529532,956.58239746,
25.768397,0.0269,0.0751,0.9333,-0.2037,-0.7301,-0.3919,-0.0996,0.1859,-0.2400,11.6632,9.4184,-42.4560,312.9969,-10.1120,3.6688,46.89589910,-114.03417300,1.20529532,956.58239746,
25.869077,0.0605,0.2331,0.7121,0.2393,0.6766,-2.7038,0.3516,-0.0097,0.0610,11.9682,8.6132,-42.8952,313.1073,-10.9492,2.4738,46.89589910,-114.03417300,1.20529532,956.58239746,
25.969146,0.2852,0.0017,1.4139,2.2180,-1.6348,3.8238,-0.4472,-0.4485,-0.3136,10.2968,7.0516,-43.4686,313.8617,-12.2387,3.6452,46.89589910,-114.03417300,1.20529532,956.57775879,
26.069946,0.0784,0.1079,1.2847,0.8474,-0.2281,1.8008,-0.1565,-0.4456,-0.2796,10.3334,6.5026,-44.0176,314.9037,-13.1688,3.1738,46.89591100,-114.03418830,1.47304714,956.57775879,
26.169939,0.0345,0.1746,0.9017,-0.0219,0.1098,-1.5859,-0.5639,-0.1069,-0.0499,8.4668,6.2830,-44.8594,315.7101,-12.4844,3.5255,46.89591100,-114.03418830,1.47304714,956.57775879,
26.270207,0.0840,0.1966,0.7174,0.2411,0.3550,-2.6120,-0.0521,-0.1572,0.2044,8.7962,7.9666,-45.0180,315.0214,-10.9853,3.9922,46.89591100,-114.03418830,1.47304714,956.57775879,
26.370404,0.1522,0.1854,0.8355,0.7612,0.0545,-1.4389,0.4210,-0.0452,-0.0771,8.0520,6.1366,-45.4938,314.7452,-11.9555,4.9599,46.89591100,-114.03418830,1.47304714,956.57775879,
26.470595,0.3213,0.0960,1.0947,1.4675,0.3984,-1.9418,-1.7386,-0.4516,-0.6765,6.9052,5.5266,-47.3116,318.5534,-17.9795,4.7249,46.89591100,-114.03418830,1.47304714,956.57775879,
26.571014,0.1463,0.1634,0.6773,0.9626,-0.5284,-2.9430,-0.1091,-0.1186,-0.1988,7.4054,8.7230,-45.6280,324.1165,-14.1755,3.0325,46.89591100,-114.03418830,1.47304714,956.57775879,
26.671335,0.0543,0.1977,0.6349,-0.0988,-0.1303,-3.3406,0.0629,-0.0172,-0.2236,5.9414,8.4790,-45.7256,325.1271,-13.8271,4.3405,46.89591100,-114.03418830,1.47304714,956.57775879,
26.771760,0.0310,0.2074,0.8067,-0.3323,-0.3056,-1.6225,0.4462,0.1322,-0.1015,6.3440,6.6734,-46.8480,326.1393,-15.3975,4.1149,46.89591100,-114.03418830,1.47304714,956.57775879,
26.872487,0.0138,0.2411,1.0888,-0.3370,-0.5726,1.3072,0.7165,0.1005,0.0435,6.5758,2.5620,-47.3970,326.0585,-19.1786,3.0267,46.89591100,-114.03418830,1.47304714,956.57775879,
26.972532,0.0580,-0.0092,1.8125,0.1805,-3.2629,9.0752,0.3752,0.1577,-0.0885,5.8438,3.2086,-47.8972,327.4833,-20.0613,2.9694,46.89591100,-114.03418830,1.47304714,956.61822510,
27.072963,0.0310,0.1904,0.9185,0.0920,-1.1893,-0.3325,-0.5698,-0.0943,-0.1221,7.5030,3.5624,-48.2144,327.5511,-19.9643,1.7426,46.89592060,-114.03420160,1.46827781,956.61822510,
27.173321,-0.0319,0.2281,0.6761,-0.4869,-0.4894,-2.7873,-0.1843,-0.1146,0.1690,7.4664,4.4652,-48.5072,327.2738,-17.8357,1.3529,46.89592060,-114.03420160,1.46827781,956.61822510,
27.273643,0.0904,0.2654,0.9080,0.5634,-0.1672,-0.5407,0.1557,-0.1139,0.0644,7.5030,3.6478,-48.3242,326.4681,-18.0317,2.3349,46.89592060,-114.03420160,1.46827781,956.61822510,
27.373981,0.1483,0.1797,1.2251,1.2404,-1.9505,2.8320,0.6666,-0.1035,-0.0832,5.4046,2.8670,-49.1782,327.1064,-19.4510,3.4357,46.89592060,-114.03420160,1.46827781,956.61822510,
27.474568,0.2216,-0.0492,1.9026,1.5659,-3.0434,10.0114,-0.6071,0.4536,-0.5685,3.9284,3.7088,-49.6784,328.9286,-19.6561,7.5587,46.89592060,-114.03420160,1.46827781,956.61822510,
27.574792,0.0017,0.1938,0.9064,-0.9583,-0.7627,-0.6331,-0.3453,-0.3638,0.2173,5.1606,4.4164,-48.2876,329.2462,-17.9174,5.4786,46.89592060,-114.03420160,1.46827781,956.61822510,
27.675246,0.0726,0.2552,0.7196,-0.4671,-0.0635,-2.4283,0.2330,-0.0389,0.3003,4.9166,5.0142,-48.6902,327.7753,-17.8596,6.6883,46.89592060,-114.03420160,1.46827781,956.61822510,
27.775865,0.0892,0.1453,1.1766,-0.2367,-1.3468,1.7490,-0.0624,0.2599,0.1794,4.7580,3.0744,-48.8488,326.5050,-19.1498,6.6866,46.89592060,-114.03420160,1.46827781,956.61822510,
27.876292,0.0375,-0.0079,1.7588,-0.1787,-2.8398,7.8667,-0.0655,0.2880,-0.1445,7.1370,2.8792,-48.7634,324.9093,-18.4992,5.1418,46.89592060,-114.03420160,1.46827781,956.61822510,
27.976629,0.1004,0.1645,0.7475,0.2948,-1.1725,-1.7146,0.0422,0.2689,-0.1950,8.3570,2.3668,-48.4706,324.5623,-18.2357,4.3196,46.89592060,-114.03420160,1.46827781,956.61822510,
28.076758,0.0349,0.2431,0.4492,-0.2695,-0.4816,-4.7400,0.1369,-0.1368,0.1669,7.9300,2.0374,-49.2270,325.0468,-18.2278,4.1181,46.89592060,-114.03420160,1.46827781,956.65228271,
28.177214,0.1191,0.1808,0.8765,-0.0353,-0.8238,-1.1176,-0.3159,-0.8498,-0.0537,5.9170,2.4400,-50.2518,325.5629,-17.9675,7.3199,46.89593150,-114.03421330,1.60538006,956.65228271,
28.277632,0.1485,0.2326,1.0022,0.0317,-0.4199,0.4876,0.1615,-0.1702,-0.2057,3.7820,1.9520,-49.8248,326.4243,-17.7840,8.8435,46.89593150,-114.03421330,1.60538006,956.65228271,
28.378070,0.2997,0.2000,1.3740,1.4257,-0.5479,3.5091,-1.0551,0.1123,-0.5344,1.9642,2.0374,-49.4954,328.1422,-17.6861,8.9704,46.89593150,-114.03421330,1.60538006,956.65228271,
28.478397,0.0492,0.1678,0.9513,-0.3997,-0.6616,0.1706,0.1133,0.3144,0.0153,4.7824,4.7092,-49.5442,329.8635,-15.1421,5.3408,46.89593150,-114.03421330,1.60538006,956.65228271,
28.578884,0.0718,0.1353,0.6533,-0.1014,-1.0321,-2.7397,0.3838,-0.0062,0.3146,5.6486,4.6360,-49.1294,328.8643,-15.0824,5.2141,46.89593150,-114.03421330,1.60538006,956.65228271,
28.678985,0.0429,0.2402,0.6135,-0.4371,-0.1068,-3.6314,-0.0622,-0.0739,0.3206,6.5270,3.8796,-50.0078,326.9865,-16.0296,5.3853,46.89593150,-114.03421330,1.60538006,956.65228271,
28.779728,0.1491,0.2876,1.1219,0.4792,0.3533,1.2290,0.0274,-0.0205,0.1503,5.5388,3.5014,-49.9102,325.6749,-15.8892,6.6028,46.89593150,-114.03421330,1.60538006,956.65228271,
28.879827,0.1050,0.3871,1.2218,0.0728,1.0334,3.3319,0.0951,0.5261,0.1905,7.3444,3.1598,-49.2880,324.4908,-15.6152,5.4185,46.89593150,-114.03421330,1.60538006,956.65228271,
28.980167,0.0099,0.0086,1.1987,-0.7891,-2.0829,3.0981,0.2582,-0.2984,-0.2742,6.6368,3.8186,-49.1660,325.3065,-15.3455,5.2936,46.89593150,-114.03421330,1.60538006,956.68408203,
29.080628,-0.1105,0.0174,0.8494,-1.2811,-1.5993,-0.8203,0.1486,0.1051,-0.1019,6.8564,3.3672,-50.2396,325.9471,-11.4607,2.0373,46.89594200,-114.03422260,1.70479488,956.68408203,
29.181086,-0.0008,0.1102,0.6905,-0.3576,-0.6813,-2.7792,-0.0177,-0.0287,0.2230,6.5514,2.9768,-49.6052,325.6183,-12.0159,2.8188,46.89594200,-114.03422260,1.70479488,956.68408203,
29.281344,0.0255,0.1738,0.7355,-0.2671,-0.0223,-2.3949,0.0374,0.0487,0.0257,6.1000,3.3916,-49.8004,324.9986,-11.5977,3.2866,46.89594200,-114.03422260,1.70479488,956.68408203,
29.381870,0.0587,0.2776,0.8850,0.1093,1.0459,-1.3492,-0.4265,-0.2798,-0.1904,5.9780,3.0866,-50.2396,325.1788,-11.9744,3.2973,46.89594200,-114.03422260,1.70479488,956.68408203,
29.482264,0.2163,0.0825,1.3399,1.2241,-0.3850,3.1092,-0.9876,-0.1649,-0.2893,3.8796,6.5514,-49.0562,327.0991,-8.8742,4.5885,46.89594200,-114.03422260,1.70479488,956.68408203,
29.582623,0.1803,0.1052,1.2157,1.0465,0.2316,2.5167,0.3315,0.0311,-0.0526,4.2944,9.2476,-48.8732,328.7400,-5.7356,4.2831,46.89594200,-114.03422260,1.70479488,956.68408203,
29.682907,0.0247,0.1346,0.7434,-0.1406,0.2255,-2.1349,0.7272,0.1128,-0.1332,5.6608,8.3814,-49.0196,329.5432,-7.6167,3.3995,46.89594200,-114.03422260,1.70479488,956.68408203,
29.783286,0.0050,0.1559,0.7984,-0.4169,0.1356,-2.0935,0.1659,0.1215,0.0809,5.6242,5.7218,-49.6296,329.8161,-10.2193,3.0657,46.89594200,-114.03422260,1.70479488,956.68408203,
29.883816,0.0202,0.2448,0.8552,-0.2848,0.4578,-1.7615,0.5019,-0.1416,0.3303,5.8682,2.9036,-50.0322,328.6577,-13.0120,3.0408,46.89594200,-114.03422260,1.70479488,956.68408203,
29.984066,0.1037,0.2851,1.2247,0.6168,0.0537,2.4458,0.3124,0.3700,0.4643,5.4046,0.5734,-49.3490,326.6216,-14.9212,3.9984,46.89594200,-114.03422260,1.70479488,956.75921631,
30.084313,0.0962,0.0682,1.3496,0.5721,-1.1567,4.3413,0.0690,-0.2055,0.1453,5.8194,-0.0366,-50.0078,324.5713,-14.9214,4.0627,46.89595180,-114.03424050,1.42434919,956.75921631,
30.184819,0.0987,0.1160,0.8957,0.2436,-0.9668,-0.6387,-0.0056,0.1875,0.1468,5.4168,-0.3416,-49.7028,323.5322,-14.0363,5.0984,46.89595180,-114.03424050,1.42434919,956.75921631,
30.285038,0.0757,0.1831,0.6401,0.0391,-0.2457,-3.4268,-0.1962,-0.1722,0.1427,6.3806,0.7686,-49.3490,322.5312,-13.3166,4.6550,46.89595180,-114.03424050,1.42434919,956.75921631,
30.385751,0.0794,0.1774,0.7187,-0.1033,-0.0565,-2.5923,-0.2558,-0.1974,0.0589,5.6852,1.6958,-49.5320,322.0143,-12.2770,5.9411,46.89595180,-114.03424050,1.42434919,956.75921631,
30.486568,0.1718,0.3115,1.0133,0.3539,1.0624,-0.3149,-0.0754,-0.3506,0.1367,4.0016,1.2322,-50.1664,321.6088,-13.5548,7.7156,46.89595180,-114.03424050,1.42434919,956.75921631,
30.586788,0.2922,0.2348,1.1541,1.1226,0.7561,1.3565,-0.6311,-0.1009,-0.1894,2.6474,0.9150,-49.6418,322.1071,-13.5525,8.8268,46.89595180,-114.03424050,1.42434919,956.75921631,
30.687401,0.1081,0.0653,1.1781,-0.4366,-1.0987,2.4110,0.3985,-0.0453,-0.0057,2.7084,2.9402,-49.6906,323.8684,-11.7727,7.7800,46.89595180,-114.03424050,1.42434919,956.75921631,
30.787701,0.1489,0.1815,0.7821,0.1351,-0.0812,-1.7058,0.4103,0.3451,-0.1524,3.2330,1.1590,-50.0566,324.0057,-12.5805,8.5997,46.89595180,-114.03424050,1.42434919,956.75921631,
30.887991,-0.0112,0.1920,0.6539,-1.1364,-0.1553,-3.1452,-0.0961,0.1181,-0.1999,5.4900,0.4880,-49.7760,325.0109,-13.8752,6.7383,46.89595180,-114.03424050,1.42434919,956.75921631,
30.988369,0.0395,0.2636,0.7152,-0.4382,0.4498,-2.5297,0.1777,0.1527,0.1295,5.7828,0.6100,-49.7760,324.7278,-14.1157,5.4391,46.89595180,-114.03424050,1.42434919,956.71185303,
31.088823,0.2291,0.4062,1.1422,1.1115,1.4183,1.6658,-0.1790,-0.2514,0.1660,5.8438,-0.9394,-50.0322,324.1597,-16.9935,6.8940,46.89596110,-114.03425140,1.45521438,956.71185303,
31.189167,0.0094,0.2935,1.2639,-0.2418,0.5275,2.7940,-0.3611,1.6102,0.0655,9.9308,-0.5002,-49.4222,322.7033,-16.4518,2.3616,46.89596110,-114.03425140,1.45521438,956.71185303,
31.289729,-0.1376,0.1691,1.1393,-1.6676,-1.2076,1.8750,0.5564,-0.6376,0.1379,10.1260,-1.7568,-49.0318,323.5233,-18.3881,2.3310,46.89596110,-114.03425140,1.45521438,956.71185303,
31.389886,-0.0153,0.0979,0.9446,-0.4244,-1.5622,-0.1998,-0.1346,-0.3597,0.2624,7.8202,-2.5620,-50.1054,322.5862,-16.8324,2.1976,46.89596110,-114.03425140,1.45521438,956.71185303,
31.490113,0.0868,0.2105,0.5565,0.3344,-0.5554,-3.9507,-0.1773,0.0366,0.2283,6.9784,-3.7332,-49.2758,321.1985,-17.1267,3.6123,46.89596110,-114.03425140,1.45521438,956.71185303,
31.590497,0.0541,0.2379,0.7727,-0.1106,-0.1376,-1.8555,0.0207,-0.0318,0.0099,5.8194,-2.2448,-50.7154,320.8438,-16.1266,4.5923,46.89596110,-114.03425140,1.45521438,956.71185303,
31.690708,0.0602,0.4050,0.8044,-0.1323,1.4111,-1.5561,0.0036,-0.1350,-0.0759,5.7096,-2.6840,-49.4466,320.9339,-16.7323,4.8536,46.89596110,-114.03425140,1.45521438,956.71185303,
31.791052,-0.1418,0.4128,1.2040,-2.0213,1.4618,2.8076,0.1149,0.2872,0.0374,5.7706,-1.6958,-50.3738,321.5271,-18.3141,4.7224,46.89596110,-114.03425140,1.45521438,956.71185303,
31.891345,0.2033,0.1136,1.2690,1.6396,-1.4303,3.2108,0.1395,0.2415,-0.0924,7.4664,-1.0492,-49.8370,320.4208,-16.6400,2.8277,46.89596110,-114.03425140,1.45521438,956.71185303,
31.991566,0.1864,0.1663,1.0566,1.3918,-0.8341,1.0421,0.1704,0.0405,-0.1736,6.1000,-0.2684,-49.3856,321.1601,-16.0720,3.3386,46.89596110,-114.03425140,1.45521438,956.71185303,
32.091721,-0.0285,0.2202,0.6014,-0.6716,-0.3852,-3.5789,-0.0272,-0.0101,-0.1294,7.0638,-1.3542,-49.5320,321.7239,-16.7621,3.1534,46.89597160,-114.03426030,1.27320671,956.71185303,
32.192209,0.0445,0.2639,0.7513,-0.0534,-0.0263,-2.0292,0.2195,-0.0037,0.2588,7.5396,-1.3176,-50.1664,321.3444,-17.0071,3.4022,46.89597160,-114.03426030,1.27320671,956.71185303,
32.292895,0.0956,0.4030,0.8285,0.3919,1.1178,-1.2379,0.0657,0.1261,0.2121,7.7958,-2.9402,-50.1054,319.8687,-18.5418,3.7326,46.89597160,-114.03426030,1.27320671,956.71185303,
32.393095,0.0715,0.3838,1.3051,0.3452,0.6990,3.9287,0.4096,0.3063,-0.0279,7.4542,-2.5010,-49.5686,319.4267,-18.5443,4.2812,46.89597160,-114.03426030,1.27320671,956.71185303,
32.493201,0.0841,0.1248,1.2779,0.3428,-1.6023,3.2740,0.0221,-0.1992,0.2563,9.2964,-2.3912,-49.2636,318.4715,-18.4858,3.1091,46.89597160,-114.03426030,1.27320671,956.71185303,
32.593498,-0.0063,0.1214,1.0169,-0.6176,-1.3952,0.6615,-0.0878,0.0180,0.2075,8.2838,-1.6836,-49.7638,317.8840,-16.8799,3.7688,46.89597160,-114.03426030,1.27320671,956.71185303,
32.693863,-0.0068,0.2050,0.5892,-0.4022,-0.3536,-3.6472,0.0829,-0.1199,0.0829,9.1866,-2.2326,-50.1054,316.6260,-15.6229,2.9161,46.89597160,-114.03426030,1.27320671,956.71185303,
32.794176,0.0917,0.2510,0.7255,0.2004,-0.0047,-2.3976,0.0102,-0.3042,-0.0471,7.3078,-2.9036,-50.4226,316.6206,-16.0404,4.4818,46.89597160,-114.03426030,1.27320671,956.71185303,
32.894346,0.0352,0.3298,0.8137,-0.5012,0.6758,-1.4342,0.1802,-0.1876,-0.1588,5.9902,-2.7450,-49.5564,317.8450,-16.7440,5.5388,46.89597160,-114.03426030,1.27320671,956.71185303,
32.994882,0.0828,0.4234,1.1806,0.0276,1.2907,2.6656,0.1978,0.1308,-0.2096,5.0386,-2.6718,-49.7638,319.1583,-16.5782,6.1479,46.89597160,-114.03426030,1.27320671,956.78582764,
33.094913,0.1962,0.1613,1.3536,1.6741,-0.6525,5.3376,0.0271,0.3587,-0.4754,5.9902,-0.4636,-49.3856,320.5998,-14.6594,5.0493,46.89598240,-114.03427360,1.56783497,956.78582764,
33.195274,0.1413,0.2284,0.8800,0.8301,-0.0221,-0.5941,0.1676,0.0140,-0.2145,7.0516,-0.4392,-49.2880,322.1107,-14.9265,3.5490,46.89598240,-114.03427360,1.56783497,956.78582764,
33.295714,-0.0170,0.2282,0.6285,-0.4431,-0.1460,-3.4336,0.0321,-0.1033,-0.1471,7.5640,-0.9394,-50.0566,323.2720,-15.7967,2.6890,46.89598240,-114.03427360,1.56783497,956.78582764,
33.395919,0.0573,0.2424,0.8140,0.1422,0.0095,-1.5330,-0.1218,0.2175,0.0875,7.4298,-0.5734,-49.1904,323.6568,-15.6131,2.9423,46.89598240,-114.03427360,1.56783497,956.78582764,
33.496282,0.1016,0.3345,0.9663,0.6925,0.9921,0.0347,0.1067,-0.2443,0.2846,8.5400,0.0854,-49.1782,321.9458,-14.8848,2.0473,46.89598240,-114.03427360,1.56783497,956.78582764,
33.596582,-0.0235,0.2253,0.9611,-0.4987,0.6718,-0.0962,-0.5188,0.4586,0.2359,9.0402,0.5856,-49.8004,320.6288,-14.0287,1.8986,46.89598240,-114.03427360,1.56783497,956.78582764,
33.696932,0.0501,0.0838,1.0216,0.2629,-0.8333,0.7511,-0.1781,-0.0689,0.0805,9.4916,3.3916,-48.7756,319.3477,-10.7597,2.1854,46.89598240,-114.03427360,1.56783497,956.78582764,
33.797358,0.0237,0.0616,0.8261,-0.0814,-0.7399,-1.2205,-0.0382,-0.0165,0.0858,8.7352,4.7824,-48.7268,319.0804,-9.5880,3.1093,46.89598240,-114.03427360,1.56783497,956.78582764,
33.897573,0.0497,0.1216,0.7441,-0.0559,-0.0230,-2.4945,-0.0467,-0.2268,0.0369,8.1984,4.0748,-49.0562,318.6227,-9.4968,3.8576,46.89598240,-114.03427360,1.56783497,956.78582764,
33.998023,0.0700,0.1660,0.8240,-0.1501,0.1990,-1.3657,0.0590,-0.0469,0.1995,7.2956,4.8922,-49.4466,318.4374,-9.2564,4.6716,46.89598240,-114.03427360,1.56783497,956.80603027,
34.098127,0.1106,0.1243,1.1482,0.1760,-0.0185,1.1316,0.0221,0.0302,-0.0284,7.1004,3.7698,-49.3734,318.3801,-9.3791,5.1927,46.89599300,-114.03428750,1.40285003,956.80603027,
34.198430,0.2413,0.0217,1.3720,2.0535,-0.5217,2.3407,-0.5795,-0.1046,-0.5406,7.5152,4.0016,-49.2636,319.0197,-10.0203,4.9667,46.89599300,-114.03428750,1.40285003,956.80603027,
34.298932,0.0739,0.1056,0.9640,0.0956,-0.3470,0.2060,0.1951,-0.0076,-0.1212,7.2102,5.0752,-49.2392,320.8923,-9.3641,4.3668,46.89599300,-114.03428750,1.40285003,956.80603027,
34.399907,-0.0371,0.0998,0.8339,-0.9353,-0.3527,-1.2537,-0.0985,0.0722,-0.0952,6.6246,5.0020,-49.4466,321.7811,-9.3800,4.4128,46.89599300,-114.03428750,1.40285003,956.80603027,
34.499485,-0.0017,0.1436,0.7994,-0.5202,0.1160,-1.8413,0.0017,0.1904,0.1324,7.9422,5.6974,-49.1172,321.5486,-8.9848,3.6819,46.89599300,-114.03428750,1.40285003,956.80603027,
34.600038,0.0739,0.1825,0.9559,0.2489,0.3937,-0.5627,0.2598,0.0682,0.1759,8.0642,5.0630,-49.5564,320.3863,-9.6144,3.0937,46.89599300,-114.03428750,1.40285003,956.80603027,
34.699924,0.0274,0.2445,1.1464,0.3620,0.3142,1.8983,0.2056,0.3035,-0.0521,9.2720,3.4526,-49.8248,319.8952,-10.8525,2.6235,46.89599300,-114.03428750,1.40285003,956.80603027,
34.799885,-0.0320,0.0210,1.3159,-0.7520,-1.3613,4.1746,0.2510,-0.1016,-0.2720,9.1012,4.7214,-49.4710,321.7706,-10.1282,2.5151,46.89599300,-114.03428750,1.40285003,956.78002930,
34.900529,0.0350,0.0553,0.9916,0.2243,-0.8272,0.1485,-0.0077,-0.1877,0.1035,9.9430,4.4408,-49.5930,321.7301,-10.1777,1.5770,46.89599540,-114.03429100,1.40015793,956.78002930,
35.000644,0.0212,0.1072,0.7825,-0.2149,-0.5277,-2.0382,0.0383,-0.1995,0.1524,9.4306,3.6722,-48.1290,320.8456,-10.4380,2.6567,46.89599540,-114.03429100,1.40015793,956.78002930,
35.100947,0.0109,0.1155,0.8709,-0.3100,-0.2920,-1.1523,0.0395,-0.1057,-0.1031,8.6498,3.9284,-49.5930,320.7519,-10.1600,3.2384,46.89599540,-114.03429100,1.40015793,956.78002930,
35.201432,0.0439,0.1704,0.9552,-0.3371,-0.0095,-0.4788,0.2364,-0.0850,-0.2426,7.0760,3.4892,-49.7028,321.7200,-11.2432,3.9064,46.89599540,-114.03429100,1.40015793,956.78002930,
35.301768,0.1597,0.2150,0.9804,0.4000,0.9427,0.0388,-0.0668,-0.1997,-0.4149,7.1126,1.6592,-50.0810,323.4652,-12.9523,3.9133,46.89599540,-114.03429100,1.40015793,956.78002930,
35.402751,0.0976,0.2066,1.0048,0.5760,-0.0564,0.6089,0.2145,0.1791,-0.0683,8.9426,2.9524,-49.9468,325.2045,-11.7875,1.7438,46.89599540,-114.03429100,1.40015793,956.78002930,
35.503167,0.0409,0.2012,0.8125,0.5027,0.1911,-1.7351,-0.1494,-0.0539,-0.2075,9.3330,2.9036,-49.8492,325.5578,-12.6275,1.6414,46.89599540,-114.03429100,1.40015793,956.78002930,
35.603802,-0.0194,0.1831,0.8465,-0.2899,0.1048,-1.3844,-0.1644,0.0942,-0.0632,8.9304,3.6966,-49.0806,326.3262,-11.7595,1.2806,46.89599540,-114.03429100,1.40015793,956.78002930,
35.703994,0.0490,0.2231,0.9017,0.4250,0.4496,-0.9668,0.0849,-0.1066,0.1511,9.6990,3.7820,-49.1904,325.9253,-11.7817,1.1489,46.89599540,-114.03429100,1.40015793,956.78002930,
35.804682,0.0246,0.2283,1.0699,0.1098,0.3951,0.8448,0.1724,0.0511,0.0049,9.2720,2.1594,-49.8614,325.2437,-12.8309,1.4373,46.89599540,-114.03429100,1.40015793,956.78002930,
35.905079,-0.0751,0.0688,1.3636,-0.6988,-1.0953,3.5839,-0.1385,0.1302,0.1357,9.6380,1.9398,-49.4466,324.9012,-12.6481,0.8456,46.89599540,-114.03429100,1.40015793,956.78002930,
36.005412,0.0468,0.0557,1.1356,0.3968,-1.2476,1.3363,-0.2255,-0.1582,0.1411,10.1138,1.8910,-49.6662,323.6017,-12.7485,1.5665,46.89599540,-114.03429100,1.40015793,956.85864258,
36.105820,0.0440,0.2388,0.6969,0.1806,0.4525,-2.5024,0.0243,0.1806,0.1918,9.3696,2.0984,-49.2270,322.5187,-12.4512,2.0885,46.89601180,-114.03430830,1.27510989,956.85864258,
36.206357,0.0406,0.1730,0.8115,-0.0375,0.0182,-1.9790,-0.2063,-0.1627,0.0234,9.7234,2.8670,-49.3124,322.0614,-12.1452,2.2787,46.89601180,-114.03430830,1.27510989,956.85864258,
36.306513,0.0242,0.2470,0.8403,-0.1514,0.4765,-1.3865,0.1678,-0.1380,-0.1007,8.5766,2.0008,-49.9712,322.5792,-12.2246,3.2445,46.89601180,-114.03430830,1.27510989,956.85864258,
36.406858,0.0560,0.2638,1.1363,0.1391,0.2491,1.8908,0.0093,0.0607,-0.2521,7.2956,2.5132,-49.3124,323.9705,-12.4219,4.2620,46.89601180,-114.03430830,1.27510989,956.85864258,
36.507276,0.1002,0.1476,1.1742,0.3157,-0.0732,2.1564,-0.2338,-0.0580,-0.3437,7.0028,3.6722,-49.2758,325.8723,-10.8624,4.1162,46.89601180,-114.03430830,1.27510989,956.85864258,
36.607622,0.1022,0.1136,0.9092,0.4252,-0.2413,-0.6613,0.1070,0.0872,-0.1268,6.7588,5.2948,-49.0074,327.5544,-9.4535,3.9378,46.89601180,-114.03430830,1.27510989,956.85864258,
36.708022,0.0064,0.1709,0.7618,-0.2816,0.2751,-2.3479,-0.0743,0.0073,-0.0983,6.6612,5.4656,-49.6418,328.1099,-9.8102,3.6182,46.89601180,-114.03430830,1.27510989,956.85864258,
36.808451,0.0500,0.1698,0.9618,-0.2023,0.3458,-0.4871,0.0592,-0.1065,0.2128,6.6002,5.9170,-49.5198,327.8267,-9.7995,3.9493,46.89601180,-114.03430830,1.27510989,956.85864258,
36.908674,0.1065,0.2048,1.0805,0.3159,0.5358,1.0054,0.2988,0.0237,0.2453,7.2590,4.6116,-49.5686,326.3354,-10.8007,3.9891,46.89601180,-114.03430830,1.27510989,956.94354248,
37.008954,-0.0424,-0.0047,1.4165,-0.8308,-1.7277,4.6685,0.1597,0.1387,0.1624,7.0638,4.6726,-49.9834,325.7740,-10.4781,3.9812,46.89602070,-114.03431980,1.35914004,956.94354248,
37.108945,0.0063,0.0699,0.9645,-0.5614,-0.8357,0.0772,-0.1448,-0.0346,0.2847,6.9418,4.1236,-49.5808,324.3577,-10.6426,4.4242,46.89602070,-114.03431980,1.35914004,956.94354248,
37.209776,0.0214,0.1546,0.7644,-0.5370,0.0805,-2.0087,-0.0254,0.0694,0.4244,7.2346,4.2456,-49.3612,322.2840,-9.5457,4.6358,46.89602070,-114.03431980,1.35914004,956.94354248,
37.310015,0.0206,0.1699,0.9574,-0.5960,0.4040,-0.5036,-0.0251,-0.0332,0.2570,7.3078,5.0874,-49.1294,320.4116,-9.0705,5.0892,46.89602070,-114.03431980,1.35914004,956.94354248,
37.410249,0.0204,0.2130,0.9043,-0.6478,0.6032,-0.9278,0.2134,0.0631,0.3368,7.4908,3.6356,-49.0684,319.0011,-10.1178,5.2717,46.89602070,-114.03431980,1.35914004,956.94354248,
37.510584,0.0994,0.1828,0.9682,0.2760,0.3479,-0.1507,-0.0452,0.1296,0.2165,8.2472,2.7816,-50.2640,317.1196,-10.5460,4.3394,46.89602070,-114.03431980,1.35914004,956.94354248,
37.611276,0.1561,0.0501,1.1375,0.9351,-0.8727,1.4879,0.0581,0.2550,0.1441,9.2110,3.6356,-49.0806,316.6337,-9.4883,4.0471,46.89602070,-114.03431980,1.35914004,956.94354248,
37.711252,0.0846,0.0779,0.9839,0.0937,-0.5211,0.0319,0.0530,0.1102,-0.1260,10.1504,3.3794,-48.8854,316.4220,-9.0913,5.1304,46.89602070,-114.03431980,1.35914004,956.94354248,
37.811490,0.0641,0.1962,0.7246,0.0893,0.5461,-2.6806,-0.0201,0.1926,-0.0789,10.9800,3.0012,-49.2148,316.6129,-9.7804,4.0256,46.89602070,-114.03431980,1.35914004,956.94354248,
37.911879,0.0689,0.1816,0.9322,0.0845,0.2375,-0.6048,0.1768,-0.2000,0.0379,10.6628,3.4404,-48.1412,317.0063,-10.1121,4.4560,46.89602070,-114.03431980,1.35914004,956.94354248,
38.016381,0.0750,0.2344,1.2100,0.0066,0.5689,2.1496,-0.0445,-0.1300,0.1074,10.1138,3.0012,-49.2148,316.4778,-10.9533,5.1482,46.89602070,-114.03431980,1.35914004,956.88922119,
38.115905,-0.0745,0.0388,1.2038,-1.2245,-0.9693,3.0200,0.0367,0.1009,-0.1419,10.0650,3.6234,-49.8248,316.6724,-10.2976,5.0599,46.89603140,-114.03433180,1.40566778,956.88922119,
38.217105,-0.0253,0.0389,1.0222,-0.5134,-0.6394,0.2614,-0.2443,0.0892,0.1418,11.0288,3.7210,-49.9346,316.0192,-7.6118,2.1897,46.89603140,-114.03433180,1.40566778,956.88922119,
38.316800,-0.0086,0.1738,0.6940,-0.1994,0.7225,-3.0065,-0.0717,-0.0376,0.1532,11.9072,3.6478,-48.7756,314.8486,-7.4099,1.2449,46.89603140,-114.03433180,1.40566778,956.88922119,
38.417870,0.0861,0.1647,0.9215,0.6550,0.6531,-0.8845,0.0007,-0.0078,0.0079,11.3826,3.3916,-49.7394,314.2317,-7.2717,1.6768,46.89603140,-114.03433180,1.40566778,956.88922119,
38.517225,0.0451,0.1663,1.0933,0.2165,0.6378,0.3155,-0.0822,-0.2661,-0.2211,11.0776,3.0012,-49.5320,314.7828,-8.2493,1.8545,46.89603140,-114.03433180,1.40566778,956.88922119,
38.617497,0.0924,0.0567,1.2874,0.5817,-0.5965,2.6550,-0.4920,-0.1297,-0.1817,10.1382,3.1964,-48.7756,316.0345,-8.7832,2.3735,46.89603140,-114.03433180,1.40566778,956.88922119,
38.717336,0.1377,0.1263,0.9926,0.7878,0.0528,-0.1202,-0.1806,0.0123,0.0566,11.3826,3.3916,-50.0566,316.1321,-8.3616,1.9195,46.89603140,-114.03433180,1.40566778,956.88922119,
38.817136,0.0718,0.1422,0.7444,0.6407,0.1760,-1.6770,0.0961,0.2221,-0.1815,11.0532,3.8308,-49.1904,316.5484,-7.4459,1.9400,46.89603140,-114.03433180,1.40566778,956.88922119,
38.918279,0.0099,0.2251,0.8038,0.0185,1.0114,-2.3268,0.0939,0.1425,-0.0912,12.0170,3.9284,-49.5198,317.4026,-7.9858,1.2031,46.89603140,-114.03433180,1.40566778,956.88922119,
39.014744,-0.0714,0.2348,1.0129,-0.7447,0.8116,0.1919,0.3614,-0.1206,0.0028,11.6876,2.1594,-48.8244,317.7932,-10.2985,0.8797,46.89604130,-114.03434170,1.30953729,956.88922119,
39.115012,0.0056,0.2473,1.0280,-0.4304,1.0534,0.3755,-0.2081,-0.0680,0.1585,11.1874,0.8296,-49.0684,317.2644,-11.8058,1.5909,46.89604130,-114.03434170,1.30953729,956.88922119,
39.215235,-0.0443,0.0473,1.1581,-0.8518,-1.0141,1.8240,0.0578,-0.2794,0.3355,11.0288,2.7084,-50.2884,316.7803,-10.3168,2.8797,46.89604130,-114.03434170,1.30953729,956.88922119,
39.317754,0.0075,0.1173,0.9110,-0.2666,-0.4215,-0.1648,0.1703,0.4019,0.4215,9.8210,1.7690,-49.5686,314.4892,-10.3998,3.3835,46.89604130,-114.03434170,1.30953729,956.88922119,
39.417431,0.0601,0.1614,0.8098,-0.0042,0.0884,-1.8300,-0.1338,-0.0985,0.1969,10.6506,1.1468,-48.7390,312.3722,-10.6503,3.5919,46.89604130,-114.03434170,1.30953729,956.88922119,
39.517874,0.0698,0.1602,0.9308,0.2212,0.0603,-0.5585,0.1131,0.1274,-0.2336,10.5042,1.0980,-50.5446,312.3256,-10.3483,3.7160,46.89604130,-114.03434170,1.30953729,956.88922119,
39.617976,-0.0460,0.1565,1.1564,-0.6183,-0.1715,1.8520,-0.0121,0.4189,-0.2294,11.5046,1.1346,-49.2758,313.7975,-10.4572,2.1964,46.89604130,-114.03434170,1.30953729,956.88922119,
39.717084,0.0156,0.0782,1.3419,0.0383,-0.4551,3.6638,-0.0071,0.0780,0.0104,11.6998,2.1716,-48.7146,314.4551,-9.7007,1.2759,46.89604130,-114.03434170,1.30953729,956.88922119,
39.817544,0.0925,0.1430,0.8158,0.6776,-0.1419,-1.6326,0.0701,-0.1433,0.0898,11.2606,1.3054,-48.1046,313.9368,-10.6792,1.7782,46.89604130,-114.03434170,1.30953729,956.88922119,
39.917767,-0.0168,0.1720,0.6828,-0.3233,0.2878,-3.0188,-0.2242,0.0776,0.0140,12.0170,1.3786,-48.6414,314.0069,-9.7718,1.5748,46.89604130,-114.03434170,1.30953729,956.88922119,
40.018339,0.0512,0.2046,0.8029,0.1335,0.6279,-1.8711,0.0679,-0.0942,0.0578,11.7608,3.1720,-49.2148,313.8180,-8.9083,1.7574,46.89605090,-114.03435240,1.29513752,956.88922119,
40.118710,0.0150,0.2336,1.1905,-0.0671,0.8215,1.8194,0.0122,-0.0773,-0.1058,11.0654,2.5742,-48.1656,314.1381,-8.8623,2.4478,46.89605090,-114.03435240,1.29513752,956.88922119,
40.221359,0.1081,-0.2840,2.0316,0.8018,-4.4698,13.3349,0.6870,0.4397,-0.4436,9.0524,7.5518,-48.9586,316.4826,-6.1160,4.4386,46.89605090,-114.03435240,1.29513752,956.88922119,
40.321794,-0.1469,0.1458,0.8667,-1.4295,0.4361,-1.3152,-0.2480,-0.2709,-0.0865,12.1268,6.0756,-47.7508,317.0948,-7.9068,1.1229,46.89605090,-114.03435240,1.29513752,956.88922119,
40.422126,-0.0320,0.0479,0.9280,-0.1257,-0.4397,0.0906,0.2777,-0.1767,0.4105,10.6384,6.5636,-47.5190,316.8371,-5.9882,-0.0670,46.89605090,-114.03435240,1.29513752,956.88922119,
40.522671,0.0419,0.1096,0.8941,0.2691,0.2435,-1.1361,-0.0370,-0.1541,0.1857,10.0162,6.2952,-48.6902,314.8781,-6.5316,1.2395,46.89605090,-114.03435240,1.29513752,956.88922119,
40.622805,0.0150,0.0871,1.1006,0.0075,0.0894,0.6608,-0.2417,0.0467,-0.1294,9.4428,6.2342,-48.1534,314.6696,-6.1098,1.8963,46.89605090,-114.03435240,1.29513752,956.88922119,
40.723223,0.0534,0.1345,1.1096,-0.0239,1.0691,1.1670,-0.5081,0.0024,-0.1598,9.0280,6.8442,-47.6044,315.4648,-5.3981,1.8949,46.89605090,-114.03435240,1.29513752,956.88922119,
40.823862,0.1237,-0.0599,1.2294,1.0902,-0.6734,2.7158,0.3529,0.2237,-0.1044,10.7848,10.7848,-47.7142,316.7736,-1.7228,-0.0169,46.89605090,-114.03435240,1.29513752,956.88922119,
40.924217,0.0695,-0.0507,0.8943,0.7213,-0.6502,-0.7116,0.5532,0.1062,-0.2047,11.6876,8.8572,-47.7752,317.8378,-2.3609,0.9996,46.89605090,-114.03435240,1.29513752,956.88922119,
41.024770,0.0091,0.0712,0.6612,0.2448,0.1400,-3.4840,0.1801,0.0315,-0.2232,11.3826,7.3810,-47.0798,318.8730,-4.9042,0.1115,46.89605090,-114.03435240,1.29513752,956.93719482,
41.124912,0.0084,0.0993,0.8403,0.2340,0.1590,-1.8171,0.1194,-0.0836,0.1163,12.0658,6.4294,-47.7386,318.8870,-6.0460,-0.0457,46.89605990,-114.03436350,1.21692383,956.93719482,
41.225458,0.0602,0.1885,1.0399,0.5576,0.9686,0.6104,0.1623,0.0837,0.2419,12.1756,5.6974,-48.5072,317.8970,-6.5549,0.0955,46.89605990,-114.03436350,1.21692383,956.93719482,
41.325880,-0.0858,0.0990,1.2052,-0.3951,0.1661,1.9997,-0.0045,0.0593,0.1769,13.2248,5.2826,-47.4702,316.7116,-6.4366,-0.4871,46.89605990,-114.03436350,1.21692383,956.93719482,
41.426020,-0.0059,0.0293,1.0431,-0.0770,-0.5727,0.2895,-0.0318,-0.4575,0.1378,12.4928,4.7336,-48.2266,315.3311,-7.2649,0.8017,46.89605990,-114.03436350,1.21692383,956.93719482,
41.526296,-0.0351,0.0768,0.8259,-0.4179,-0.1085,-1.6079,0.2337,0.1471,0.3633,11.3460,4.8800,-48.4218,314.1357,-6.4861,0.9405,46.89605990,-114.03436350,1.21692383,956.93719482,
41.626633,0.0568,0.1497,0.8413,0.4221,0.5173,-1.5312,0.1079,-0.1532,0.2301,11.5168,3.1720,-47.5190,312.3020,-7.1731,1.2862,46.89605990,-114.03436350,1.21692383,956.93719482,
41.727093,0.0707,0.1398,0.9711,0.4493,0.2988,-0.2727,0.2629,-0.0771,0.0076,10.3822,2.4034,-48.1656,311.8661,-7.8830,2.1013,46.89605990,-114.03436350,1.21692383,956.93719482,
41.827148,0.0588,0.1222,1.1495,0.2068,-0.0679,1.4587,-0.1025,-0.1643,-0.2496,10.3334,1.8544,-48.2876,312.4921,-9.5598,2.7228,46.89605990,-114.03436350,1.21692383,956.93719482,
41.927495,0.0123,0.1158,1.2777,-0.0937,-0.1525,2.6771,-0.4925,0.1403,-0.1071,9.7356,1.6836,-48.6048,313.2301,-9.3961,2.0833,46.89605990,-114.03436350,1.21692383,956.93719482,
42.028056,0.1037,0.1066,1.1042,0.8766,-0.0895,1.0794,-0.1867,0.0555,0.0559,10.4310,2.9646,-47.9460,312.8146,-8.3788,1.5061,46.89605990,-114.03436350,1.21692383,956.94183350,
42.128212,0.0557,0.2001,0.6592,0.5260,0.6725,-3.2641,0.1121,0.1135,-0.0715,11.1752,2.5864,-47.8484,312.3313,-9.1723,0.8988,46.89606860,-114.03437280,1.21278310,956.94183350,
42.228702,0.0562,0.2010,0.9352,0.5489,0.6495,-0.6263,0.0011,0.0495,-0.0225,11.8218,2.3790,-48.0802,312.6783,-9.2770,0.4870,46.89606860,-114.03437280,1.21278310,956.94183350,
42.328734,0.0425,0.2219,1.0281,0.4908,0.6406,0.3966,0.3830,0.1193,0.1625,12.3098,1.0614,-47.4824,312.3999,-10.4977,0.2446,46.89606860,-114.03437280,1.21278310,956.94183350,
42.429328,0.0607,0.1110,1.2050,0.6911,-0.6017,2.0628,-0.2379,-0.2272,0.0561,12.0902,0.5124,-46.7504,311.3530,-11.8684,0.1930,46.89606860,-114.03437280,1.21278310,956.94183350,
42.530030,0.0267,0.1385,0.9287,0.2206,-0.3727,-0.8720,-0.3444,-0.1564,0.0443,11.1630,0.0366,-47.3970,311.0955,-12.0380,1.3274,46.89606860,-114.03437280,1.21278310,956.94183350,
42.630469,0.0037,0.1391,0.8380,-0.0667,-0.1410,-1.3595,-0.1573,0.1247,0.1119,11.1874,1.4152,-47.0310,310.8430,-10.2184,1.3268,46.89606860,-114.03437280,1.21278310,956.90368652,
42.730717,0.0249,0.1849,0.8898,0.0733,0.4380,-1.0531,-0.1157,-0.2323,0.0693,11.6998,1.9154,-47.6654,310.2479,-9.8022,1.6179,46.89607060,-114.03437470,1.21146786,956.90368652,
42.831250,0.0633,0.2120,0.9746,0.2181,0.6008,0.0140,0.2403,-0.1486,-0.0185,10.2114,1.3908,-47.5556,310.2809,-9.7204,2.8990,46.89607060,-114.03437470,1.21146786,956.90368652,
42.931215,0.0511,0.2384,1.0825,-0.0700,0.8165,1.3349,0.1728,-0.0951,-0.2623,8.9670,1.1712,-47.1286,311.3611,-10.6813,3.8959,46.89607060,-114.03437470,1.21146786,956.90368652,
43.031752,0.1193,0.1039,1.0556,0.5681,-0.5463,1.1020,0.0508,0.0849,-0.1749,8.9426,2.0008,-46.6772,312.8703,-10.1252,3.6323,46.89607060,-114.03437470,1.21146786,956.90368652,
43.132364,0.1026,0.1385,0.8988,0.5056,-0.1283,-0.6090,0.0019,0.0595,-0.0469,8.6986,2.5254,-46.8724,313.5638,-9.5449,3.5246,46.89607060,-114.03437470,1.21146786,956.90368652,
43.232864,0.0567,0.2119,0.7739,0.1715,0.6527,-2.3397,0.0190,0.1147,-0.0250,8.9914,1.4640,-46.5918,313.6209,-9.9286,2.7785,46.89607060,-114.03437470,1.21146786,956.90368652,
43.332927,0.0904,0.2103,0.9306,0.5363,0.7050,-0.9224,-0.0819,0.1548,-0.0312,9.5648,1.3420,-46.3844,313.6288,-10.3025,2.2244,46.89607060,-114.03437470,1.21146786,956.90368652,
43.433243,0.0754,0.2277,1.1106,0.6169,0.5943,0.9238,0.0233,0.0837,0.1694,10.7604,1.7568,-46.0672,313.1372,-10.5018,1.3979,46.89607060,-114.03437470,1.21146786,956.90368652,
43.533561,-0.0503,0.0619,1.1572,-0.5923,-1.0839,2.8312,0.3995,0.1775,0.1393,10.7482,1.5738,-45.9696,312.6589,-9.9919,1.4780,46.89607060,-114.03437470,1.21146786,956.90368652,
43.634293,0.0129,0.1167,0.9434,-0.0417,-0.3786,-0.2017,-0.1239,-0.0167,0.1690,10.6018,0.8296,-45.3474,311.6541,-10.4536,1.5243,46.89607060,-114.03437470,1.21146786,956.90368652,
43.734636,0.0171,0.1574,0.8021,-0.0775,0.0597,-1.7106,-0.0926,-0.0042,0.1566,10.9800,0.9516,-46.2014,310.7466,-9.6101,1.5060,46.89607060,-114.03437470,1.21146786,956.90368652,
43.834911,0.0316,0.1942,0.9278,0.1422,0.6297,-0.7260,-0.0437,0.0378,0.0473,11.9438,2.2326,-46.5918,310.2044,-8.9016,1.5479,46.89607060,-114.03437470,1.21146786,956.90368652,
43.935338,0.0630,0.2471,0.9396,0.2528,1.1774,-1.0434,0.1029,-0.3233,-0.0804,11.2606,0.7076,-45.8842,310.0926,-9.8160,1.5292,46.89607060,-114.03437470,1.21146786,956.88922119,
44.035679,0.0681,0.1117,1.1657,0.0148,-0.4503,1.1984,-0.1287,-0.1290,-0.2004,10.8336,1.4030,-45.7622,311.3745,-10.6483,2.6230,46.89608530,-114.03439330,1.17502296,956.88922119,
44.136129,0.0755,0.0969,1.0764,0.4201,-0.4802,1.0033,-0.0827,-0.0373,-0.0411,10.6384,1.4518,-46.3966,311.9754,-9.8656,2.1197,46.89608530,-114.03439330,1.17502296,956.88922119,
44.236488,0.0408,0.1491,0.8050,0.1838,-0.0577,-1.1857,0.1630,0.2121,-0.0553,10.9678,1.9520,-46.2746,312.1985,-9.5807,1.9481,46.89608530,-114.03439330,1.17502296,956.88922119,
44.336833,-0.0211,0.1634,0.9089,-0.3045,0.2142,-0.7716,0.0864,0.0906,-0.0768,11.7364,1.7690,-45.6524,312.7782,-9.6210,1.1546,46.89608530,-114.03439330,1.17502296,956.88922119,
44.437132,-0.0116,0.1888,1.0236,-0.0927,0.2752,0.3681,0.3737,0.1420,0.1155,12.5660,1.5738,-46.4088,312.6797,-10.6637,0.5648,46.89608530,-114.03439330,1.17502296,956.88922119,
44.537669,0.0137,0.2723,0.9685,0.0719,1.0953,-0.0966,-0.0710,-0.0529,0.1597,13.1394,-0.5734,-46.8968,311.5743,-12.8522,0.3301,46.89608530,-114.03439330,1.17502296,956.88922119,
44.638789,-0.0886,0.1919,0.7809,-0.8464,-0.0443,-1.5130,0.4010,0.1175,0.3730,13.0296,-0.5978,-47.4336,310.7471,-12.2487,-0.1882,46.89608530,-114.03439330,1.17502296,956.88922119,
44.738255,-0.0200,0.1444,0.8595,-0.0849,-0.3207,-1.0853,-0.0875,0.0775,0.1358,13.0418,-0.4148,-47.6410,309.6395,-11.6668,0.2630,46.89608530,-114.03439330,1.17502296,956.88922119,
44.838285,0.0196,0.1880,0.7993,0.1330,0.2097,-1.9044,-0.0891,-0.2027,0.0787,12.7978,0.0244,-47.2018,309.0511,-11.2764,0.5447,46.89608530,-114.03439330,1.17502296,956.88922119,
44.938605,0.0348,0.1728,1.0042,0.1637,0.0951,0.1935,0.1310,-0.1144,-0.1155,13.2492,2.3424,-48.2998,309.4505,-10.9001,1.6509,46.89608530,-114.03439330,1.17502296,956.92681885,
45.039090,0.0136,0.3718,1.1707,-0.0269,1.7125,1.7221,-0.2026,-0.1011,-0.3207,11.2972,0.3294,-47.1774,310.5210,-12.0011,2.1799,46.89609440,-114.03440430,1.31822634,956.92681885,
45.139330,0.0840,0.0163,1.2465,0.8306,-1.2227,3.3106,0.5147,0.4949,0.0405,11.1630,2.4156,-47.4336,311.4547,-9.2453,1.4323,46.89609440,-114.03440430,1.31822634,956.92681885,
45.239847,0.1659,0.0960,1.0087,0.9555,-0.4627,0.1459,-0.1780,-0.0995,-0.1906,11.1508,0.8662,-46.9456,311.0858,-10.3806,4.8536,46.89609440,-114.03440430,1.31822634,956.92681885,
45.340241,0.0057,0.1653,0.7035,-0.6728,0.0412,-2.4640,0.1364,0.0925,-0.2065,11.3460,2.0740,-46.9090,312.2527,-10.2079,4.5326,46.89609440,-114.03440430,1.31822634,956.92681885,
45.440739,0.0555,0.2094,0.8904,-0.0623,0.5544,-1.1702,0.0455,0.1496,-0.0627,11.9560,1.4884,-47.4702,313.0100,-10.5658,3.6625,46.89609440,-114.03440430,1.31822634,956.92681885,
45.541243,-0.0167,0.2449,1.1278,-0.5891,0.6138,1.5018,0.3883,0.0960,0.2555,12.6148,0.4392,-48.3486,312.6767,-11.6670,2.9040,46.89609440,-114.03440430,1.31822634,956.92681885,
45.641777,0.1136,0.0857,1.3609,1.1144,-0.9223,2.5972,-0.4182,-0.3232,-0.0373,12.8588,0.9272,-48.0192,311.3103,-12.2957,3.2889,46.89609440,-114.03440430,1.31822634,956.92681885,
45.741752,-0.0366,0.1061,0.9891,-0.9056,-0.6531,0.0128,-0.1520,-0.3708,0.1504,11.2484,0.1952,-48.6658,310.9312,-11.7713,3.7575,46.89609440,-114.03440430,1.31822634,956.92681885,
45.842022,0.0333,0.1111,0.9117,-0.5460,-0.4447,-0.9368,-0.2548,-0.1301,0.1911,10.1016,0.2684,-48.4462,310.0496,-10.6099,5.0375,46.89609440,-114.03440430,1.31822634,956.92681885,
45.942251,0.1024,0.1617,0.8796,0.0830,0.1873,-1.2418,-0.0830,-0.1020,-0.0962,9.3696,0.7320,-48.8488,309.6014,-10.1701,6.0409,46.89609440,-114.03440430,1.31822634,956.92681885,
46.043081,0.0983,0.1823,0.9053,0.1451,0.1981,-1.0698,0.2109,-0.0299,-0.3218,8.7596,0.3050,-48.7512,310.6274,-10.8992,6.0349,46.89609440,-114.03440430,1.31822634,956.94647217,
46.142939,0.0215,0.2675,0.9946,-0.5984,0.8653,0.7327,0.0243,0.1673,-0.3865,9.0280,0.0610,-48.7634,312.6718,-11.9945,5.6228,46.89610400,-114.03441480,1.31558585,956.94647217,
46.243243,-0.0002,0.0097,1.3489,-0.3549,-1.2214,4.3523,-0.1115,0.4071,-0.4106,10.3456,2.2082,-48.8122,314.9835,-10.1400,3.6779,46.89610400,-114.03441480,1.31558585,956.94647217,
46.343652,0.0294,0.0618,0.9757,-0.0196,-0.8632,0.0671,0.0545,0.0000,0.1626,10.8702,2.5498,-48.2754,315.5450,-9.7141,2.2753,46.89610400,-114.03441480,1.31558585,956.94647217,
46.444080,0.0124,0.1537,0.7167,-0.2179,0.0572,-2.8781,0.0151,-0.0762,0.2615,11.0532,1.1956,-48.2144,314.1895,-10.5090,2.5855,46.89610400,-114.03441480,1.31558585,956.94647217,
46.544469,0.0694,0.1969,0.8493,0.2526,0.3025,-1.3501,0.1624,0.0236,0.1554,10.7604,0.0610,-48.5560,312.6181,-11.1864,3.1835,46.89610400,-114.03441480,1.31558585,956.94647217,
46.644919,0.0549,0.2700,0.9896,0.1178,0.9409,-0.3156,-0.1529,-0.0294,0.0930,11.2850,-0.6222,-48.5804,311.6522,-12.6141,2.8674,46.89610400,-114.03441480,1.31558585,956.94647217,
46.745333,0.0119,0.1658,1.1910,0.0589,-0.0491,1.5181,-0.2052,0.0070,0.0227,11.5534,0.4148,-48.4462,310.9710,-11.7594,2.4152,46.89610400,-114.03441480,1.31558585,956.94647217,
46.845619,0.0255,0.0918,1.1151,-0.1551,-0.6559,1.1925,-0.3782,-0.0656,0.0923,11.8828,0.9882,-48.9708,310.3337,-11.1045,3.1510,46.89610400,-114.03441480,1.31558585,956.94647217,
46.946248,-0.0293,0.1871,0.7730,-0.7370,0.2661,-2.0784,0.0982,-0.1313,0.2175,11.3826,0.6710,-48.6536,309.4178,-10.7265,3.2230,46.89610400,-114.03441480,1.31558585,956.94647217,
47.046315,0.0311,0.1794,0.8469,-0.4807,0.1617,-1.3488,-0.1731,-0.0812,0.0974,9.5648,-0.4392,-48.6658,309.0148,-11.0549,5.2350,46.89610400,-114.03441480,1.31558585,956.94647217,
47.147012,0.1002,0.1839,0.9878,-0.0134,0.3377,0.0985,0.0119,-0.1457,-0.0226,8.2106,0.8784,-49.2636,309.0495,-10.1311,6.4099,46.89611380,-114.03442680,1.22146416,956.94647217,
47.247131,0.1089,0.2385,1.0687,-0.0684,0.8307,0.9555,0.0935,0.0245,-0.1990,7.3810,1.2444,-49.3490,310.1568,-10.0687,7.3001,46.89611380,-114.03442680,1.22146416,956.94647217,
47.347631,0.1093,0.0950,1.1624,0.0025,-0.3177,1.8285,-0.0572,0.2362,-0.3011,6.6246,2.5376,-49.2026,311.9445,-9.0824,6.8988,46.89611380,-114.03442680,1.22146416,956.94647217,
47.447941,0.0908,0.1160,0.8344,-0.0144,-0.1684,-1.3945,0.3121,0.0752,0.1380,7.8812,2.6596,-49.5198,312.4255,-9.1492,5.7821,46.89611380,-114.03442680,1.22146416,956.94647217,
47.548148,0.0848,0.1773,0.7795,-0.0604,0.3728,-2.0347,-0.1489,-0.0046,-0.0178,8.7230,2.4766,-49.5320,311.8938,-9.7739,5.9562,46.89611380,-114.03442680,1.22146416,956.94647217,
47.649866,0.1054,0.1929,0.9906,0.1922,0.5193,0.0633,0.1743,0.1934,0.0142,8.7840,2.9646,-48.6658,311.8521,-9.3216,5.7184,46.89611380,-114.03442680,1.22146416,956.94647217,
47.749608,0.1063,0.2033,1.0127,0.3097,0.6205,-0.0075,0.0076,0.0407,-0.0317,9.8088,1.5006,-49.1416,311.5211,-11.1409,4.8586,46.89611380,-114.03442680,1.22146416,956.94647217,
47.850061,-0.0002,0.0547,1.4718,-0.5254,-0.9482,5.3978,0.1979,0.1611,0.0719,9.8576,2.8182,-47.4092,311.8945,-9.2748,4.3921,46.89611380,-114.03442680,1.22146416,956.94647217,
47.949763,0.0092,0.0480,1.1880,-0.5827,-0.8870,1.7807,-0.3478,-0.3427,-0.0211,9.8942,2.5254,-49.0074,311.5945,-9.8196,4.7886,46.89611380,-114.03442680,1.22146416,956.98809814,
48.050367,0.0137,0.1625,0.8192,-0.6272,0.1810,-1.4399,0.2651,-0.0103,0.2063,8.6254,2.1228,-48.5926,310.7917,-9.5667,5.2412,46.89612080,-114.03443640,1.04830980,956.98809814,
48.150659,0.0711,0.1853,0.9002,-0.2323,0.3773,-0.8139,0.0237,-0.0818,0.1680,8.8694,1.6836,-48.8122,309.8622,-10.0982,5.9773,46.89612080,-114.03443640,1.04830980,956.98809814,
48.251076,0.0867,0.2231,0.9817,-0.1034,0.6522,-0.0809,0.1381,0.0363,-0.0087,8.5522,1.1102,-48.1900,309.4399,-10.4484,6.0724,46.89612080,-114.03443640,1.04830980,956.98809814,
48.351240,0.0531,0.1571,1.1742,-0.4653,-0.0362,1.6507,0.0288,0.2372,-0.1324,9.2232,1.3542,-48.9342,309.9364,-11.0134,5.3485,46.89612080,-114.03443640,1.04830980,956.98809814,
48.451793,0.0801,0.0964,1.0561,0.2104,-0.6810,0.9452,0.2016,0.1700,0.0176,10.8336,0.8906,-48.4340,310.3023,-10.8744,3.8508,46.89612080,-114.03443640,1.04830980,956.98809814,
48.552996,0.0782,0.1467,0.8620,0.2737,-0.2389,-1.0415,0.0682,0.0499,0.0254,11.0044,0.8174,-48.7512,310.1226,-11.3867,3.6729,46.89612080,-114.03443640,1.04830980,956.98809814,
48.653152,0.0105,0.1831,0.7579,-0.3278,0.0799,-2.3141,-0.0694,0.1024,-0.0312,11.1996,0.7442,-48.6536,310.1284,-11.6984,3.0492,46.89612080,-114.03443640,1.04830980,956.98809814,
48.753701,0.0947,0.2454,0.9806,0.5984,0.5604,-0.1772,0.2484,0.0036,-0.0368,11.8096,-0.1830,-48.0436,310.1334,-12.3216,2.7873,46.89612080,-114.03443640,1.04830980,956.98809814,
48.854154,0.0707,0.2853,1.1294,0.4462,0.5335,1.4604,0.0476,0.0904,-0.0708,11.3094,-1.4396,-48.6048,310.3433,-13.9817,2.7724,46.89612080,-114.03443640,1.04830980,956.98809814,
48.954301,-0.0990,0.1717,1.0511,-1.4018,-0.5753,2.2013,0.5411,0.1474,0.1234,11.8706,-0.5490,-48.3730,310.9916,-13.6726,2.6118,46.89612080,-114.03443640,1.04830980,956.98809814,
49.054990,-0.0407,0.1798,0.8480,-0.7217,-0.1794,-0.9705,-0.2654,-0.0286,-0.0028,11.2362,-1.2566,-47.9704,310.6856,-13.9158,2.4564,46.89612080,-114.03443640,1.04830980,956.97882080,
49.155200,-0.0431,0.1507,0.8417,-0.7606,-0.4343,-1.0817,-0.0698,-0.0669,0.0778,11.6510,0.2562,-48.0314,310.6724,-12.2859,2.5408,46.89612990,-114.03444740,1.11221850,956.97882080,
49.255487,0.0449,0.2085,0.9232,-0.1230,0.2219,-0.5866,0.0525,-0.0608,0.0733,11.6754,0.7930,-48.8610,310.3044,-11.7335,2.9337,46.89612990,-114.03444740,1.11221850,956.97882080,
49.355885,0.0686,0.2431,1.1101,0.1811,0.7496,0.5823,-0.1703,-0.1831,-0.1549,10.7726,0.1586,-48.3486,310.4810,-12.1102,3.2192,46.89612990,-114.03444740,1.11221850,956.97882080,
49.456355,0.1298,0.0944,1.3014,0.7671,-0.6605,2.8730,-0.2632,0.1826,-0.2271,10.9434,1.0858,-48.2144,311.6317,-11.7515,3.1853,46.89612990,-114.03444740,1.11221850,956.97882080,
49.556619,0.0375,0.1496,0.9379,0.2176,-0.3203,-0.4690,-0.0707,0.0284,-0.0823,11.6266,0.1464,-48.6658,312.3939,-11.8020,1.4525,46.89612990,-114.03444740,1.11221850,956.97882080,
49.656980,0.0273,0.1965,0.8666,0.1712,0.1841,-0.9896,0.1600,0.0535,-0.0770,11.6022,1.0492,-48.9586,312.7993,-11.4939,1.5813,46.89612990,-114.03444740,1.11221850,956.97882080,
49.757208,0.0389,0.2476,0.7808,0.2435,0.4956,-2.0770,0.1847,-0.0698,0.0205,12.2976,0.0488,-48.2510,312.9164,-12.8977,1.3389,46.89612990,-114.03444740,1.11221850,956.97882080,
49.857581,0.0191,0.2447,0.9641,0.0641,0.2232,-0.4431,0.1970,-0.1274,0.0458,11.7486,-0.7442,-48.4828,312.8631,-14.2792,1.7800,46.89612990,-114.03444740,1.11221850,956.97882080,
49.958364,-0.0387,0.1698,1.2220,-0.1494,-0.3281,2.0628,-0.1246,0.1293,0.1161,11.6998,-1.4884,-48.2876,312.5182,-14.4910,2.1064,46.89612990,-114.03444740,1.11221850,956.98925781,
50.058457,0.0254,0.1455,1.0998,-0.3468,-0.6195,0.9237,-0.2950,-0.3017,0.3977,10.5652,-1.0614,-48.5926,311.1021,-13.7100,2.5346,46.89613930,-114.03445790,1.30553889,956.98925781,
50.158840,0.0658,0.1995,0.8059,0.1996,0.1488,-1.6552,-0.1342,0.2775,0.2065,9.6380,-0.7930,-48.5804,309.2869,-12.1566,3.2732,46.89613930,-114.03445790,1.30553889,956.98925781,
50.259047,0.0788,0.2145,0.8712,0.2602,0.5339,-1.4886,-0.1778,-0.1366,-0.0399,11.1142,0.8296,-48.3242,308.7306,-11.4811,2.9689,46.89613930,-114.03445790,1.30553889,956.98925781,
50.359408,0.0755,0.2569,0.9286,0.3833,0.5608,-0.1487,0.3708,0.1285,-0.2205,10.4920,0.2196,-48.0192,309.4416,-11.8016,3.1935,46.89613930,-114.03445790,1.30553889,956.98925781,
50.459761,0.0346,0.2396,1.2254,0.0505,0.3394,2.9175,0.0275,0.2860,-0.3668,10.3578,-0.0854,-48.8732,311.4234,-12.8119,3.0429,46.89613930,-114.03445790,1.30553889,956.98925781,
50.559811,0.0492,0.1421,0.9196,-0.0048,-0.4351,0.1650,0.1520,0.0385,-0.0518,11.1996,0.5734,-47.7996,312.7572,-12.9370,1.4903,46.89613930,-114.03445790,1.30553889,956.98925781,
50.660405,0.0640,0.1406,0.8855,0.3804,-0.5523,-0.4723,0.0399,-0.0228,-0.0946,11.3948,0.6832,-48.2266,313.4492,-12.0418,2.2502,46.89613930,-114.03445790,1.30553889,956.98925781,
50.760485,0.0389,0.2376,0.8074,0.1977,0.4722,-1.9414,-0.1080,0.0027,-0.2365,11.3216,-0.2318,-47.9338,314.1373,-12.5854,2.0320,46.89613930,-114.03445790,1.30553889,956.98925781,
50.861058,0.0491,0.2795,0.9420,0.2493,0.7251,-0.4748,0.1080,0.2657,0.1347,11.8218,-0.1708,-47.5068,314.6866,-12.8775,1.1886,46.89613930,-114.03445790,1.30553889,956.98925781,
50.961654,0.0078,0.3506,1.1786,0.2640,1.2703,1.8290,-0.0405,-0.0741,-0.0872,12.0902,-0.4270,-47.6288,314.0647,-14.2202,1.0857,46.89613930,-114.03445790,1.30553889,956.99792480,
51.061804,-0.2007,0.1563,0.8942,-1.8634,-0.6951,0.4440,0.6561,0.3346,0.0567,11.7974,-0.3660,-47.7264,314.7652,-13.7508,0.8135,46.89614910,-114.03446970,1.29235590,956.99792480,
51.162041,-0.0771,0.0720,0.9448,-0.6176,-0.9306,-0.3442,-0.2420,0.0315,0.3150,11.2850,-0.5246,-48.7878,314.2312,-11.0276,-0.5951,46.89614910,-114.03446970,1.29235590,956.99792480,
51.262495,-0.0097,0.2275,0.6982,0.0567,0.5980,-3.0649,-0.1206,-0.0950,0.3193,11.0288,-0.3538,-47.7264,311.9348,-10.8267,-0.7693,46.89614910,-114.03446970,1.29235590,956.99792480,
51.362763,0.1260,0.1878,0.9779,1.1348,0.3147,-0.2821,-0.0578,-0.1121,0.0368,10.5896,-0.0244,-47.2872,311.1732,-10.5207,1.5880,46.89614910,-114.03446970,1.29235590,956.99792480,
51.463010,0.1057,0.1489,1.2294,0.8198,-0.0190,2.3171,-0.0295,-0.1441,-0.3325,10.5652,-0.3050,-47.1896,312.0202,-10.5156,1.8578,46.89614910,-114.03446970,1.29235590,956.99792480,
51.563202,0.0415,0.1387,1.1904,0.3837,-0.0872,1.9613,-0.2880,0.1523,-0.4194,10.5164,0.3294,-47.5922,313.9658,-10.3100,1.0241,46.89614910,-114.03446970,1.29235590,956.99792480,
51.663604,-0.0108,0.1242,0.9838,-0.0351,-0.0692,-0.0031,-0.0251,0.0634,-0.1194,11.1386,2.0374,-47.3360,315.4044,-9.1100,0.3033,46.89614910,-114.03446970,1.29235590,956.99792480,
51.763912,-0.0117,0.2113,0.6841,-0.0270,0.7395,-2.9891,0.0514,0.0606,0.0511,11.5290,2.1716,-47.4458,315.3842,-9.2774,0.0171,46.89614910,-114.03446970,1.29235590,956.99792480,
51.864220,0.0187,0.2495,0.8713,0.2631,1.0978,-1.2080,0.0979,0.0040,0.0686,11.7974,1.9276,-47.5556,315.1289,-9.5763,-0.0386,46.89614910,-114.03446970,1.29235590,956.99792480,
51.964455,-0.0224,0.2539,1.0656,-0.1196,0.9053,0.8843,0.2615,0.1557,0.0926,12.1390,1.4152,-47.5800,314.6990,-11.2810,-0.3051,46.89614910,-114.03446970,1.29235590,957.02508545,
52.064854,-0.0005,0.0602,1.5013,0.6713,-0.9373,5.2562,0.0154,0.1474,-0.1082,12.4806,0.8174,-47.0676,314.4925,-10.5579,-0.5670,46.89616010,-114.03448040,1.33042359,957.02508545,
52.165158,-0.0406,0.0820,1.0073,-0.1746,-0.7717,0.4279,-0.1710,-0.0768,0.0994,12.2732,0.5246,-46.7504,314.1975,-10.8486,-0.3905,46.89616010,-114.03448040,1.33042359,957.02508545,
52.265453,-0.0501,0.1446,0.7469,-0.2828,-0.0623,-2.1653,-0.0596,0.1144,0.1600,11.9804,1.6836,-46.9334,313.3561,-9.8985,-0.3511,46.89616010,-114.03448040,1.33042359,957.02508545,
52.365741,0.0121,0.1628,0.8788,0.1406,0.1836,-1.1170,0.0321,-0.1523,0.1214,11.6754,1.3786,-46.6162,312.4253,-9.8915,0.4789,46.89616010,-114.03448040,1.33042359,957.02508545,
52.465955,0.0630,0.2205,1.1099,0.5214,0.6640,0.9375,0.0705,-0.1194,-0.1372,11.4070,0.4270,-46.9578,312.4137,-10.2710,1.1939,46.89616010,-114.03448040,1.33042359,957.02508545,
52.566434,0.0693,0.1384,1.2130,0.5343,-0.1242,2.0530,-0.3399,-0.1386,-0.3093,11.6144,0.6344,-46.9578,313.7485,-10.5820,1.2301,46.89616010,-114.03448040,1.33042359,957.02508545,
52.666989,0.0537,0.0927,1.0124,0.5399,-0.4650,0.2256,-0.0499,-0.0733,0.0445,11.5046,1.8056,-47.2384,314.3606,-9.6656,0.5922,46.89616010,-114.03448040,1.33042359,957.02508545,
52.767388,0.0693,0.1463,0.8855,0.5722,0.1719,-0.9543,0.0262,0.0721,0.0784,11.0166,2.4278,-45.8354,313.9766,-8.8785,1.3632,46.89616010,-114.03448040,1.33042359,957.02508545,
52.868022,0.0273,0.2337,0.7661,0.2392,0.9126,-2.2123,0.2260,0.0839,-0.0416,11.8340,1.8666,-45.8598,313.7524,-9.6094,0.7961,46.89616010,-114.03448040,1.33042359,957.02508545,
52.967966,-0.0011,0.2121,1.0106,0.0481,0.5135,0.2148,0.1485,0.0932,-0.1209,12.4440,1.2932,-46.2014,314.1890,-10.8265,0.3295,46.89616010,-114.03448040,1.33042359,957.04357910,
53.068414,0.0603,0.0985,1.3457,0.5893,-0.4359,3.3742,-0.3607,-0.2075,0.0452,12.6514,1.4030,-46.0916,314.2337,-10.4836,0.3154,46.89617200,-114.03449230,1.41493189,957.04357910,
53.169091,-0.0436,0.1594,0.9064,-0.4953,-0.1233,-0.7842,0.2623,-0.3641,0.2616,12.5050,0.6588,-45.6890,313.3442,-11.5283,0.8548,46.89617200,-114.03449230,1.41493189,957.04357910,
53.269545,0.0420,0.1245,0.9851,0.1731,-0.4454,0.0221,-0.1332,0.0248,-0.0435,11.6022,0.0366,-44.9570,312.6661,-11.3933,2.2051,46.89617200,-114.03449230,1.41493189,957.04357910,
53.369789,0.0050,0.1911,0.7486,-0.1222,0.2027,-2.3396,0.0075,-0.0356,-0.0671,12.0902,0.2440,-45.7988,312.7542,-11.4717,1.5247,46.89617200,-114.03449230,1.41493189,957.04357910,
53.470112,0.0058,0.1972,0.9049,-0.0534,0.1658,-0.7457,0.1395,-0.0193,-0.1612,12.0292,0.5368,-44.8350,313.3499,-11.6731,1.5658,46.89617200,-114.03449230,1.41493189,957.04357910,
53.570455,0.0032,0.2185,1.2316,0.0223,0.3210,2.3476,-0.1298,0.1372,-0.2129,11.5900,0.8662,-44.1884,314.2456,-11.6281,1.7244,46.89617200,-114.03449230,1.41493189,957.04357910,
53.670718,0.0318,0.0482,1.3408,0.5047,-0.9543,3.8967,-0.1992,0.6162,-0.1121,11.5656,2.8792,-44.2372,315.0443,-9.9652,1.7534,46.89617200,-114.03449230,1.41493189,957.04357910,
53.771027,0.0807,0.1243,0.9598,0.8028,-0.1517,-0.1722,-0.0296,0.1554,-0.0030,12.2488,2.9524,-44.2372,314.6978,-9.6298,0.8715,46.89617200,-114.03449230,1.41493189,957.04357910,
53.871293,0.0136,0.2127,0.7382,0.1658,0.6341,-2.4731,0.0276,0.1959,-0.0719,12.5416,2.8182,-43.2856,314.6401,-10.0114,0.3298,46.89617200,-114.03449230,1.41493189,957.04357910,
53.971495,-0.0282,0.1802,0.8878,-0.0269,0.2554,-1.0259,0.2182,0.2297,0.0907,14.2496,2.2814,-42.4682,314.8624,-10.3646,-1.0364,46.89617200,-114.03449230,1.41493189,957.05163574,
54.078246,-0.0089,0.2668,0.9988,0.3902,0.7271,0.0541,0.3600,0.0280,0.2355,15.0426,1.4518,-42.5048,313.2823,-12.5777,-2.3848,46.89618180,-114.03450290,1.17652655,957.05163574,
54.178146,0.0004,0.0182,1.5853,0.8841,-1.3524,5.4367,-0.3473,-0.2584,-0.0476,15.3720,0.9272,-42.9440,312.5969,-11.8367,-1.4819,46.89618180,-114.03450290,1.17652655,957.05163574,
54.278361,-0.1041,0.1037,0.9340,-0.6555,-0.5765,-0.3108,-0.3351,-0.1227,0.1759,14.2374,2.0984,-42.0534,311.9715,-11.5196,-0.5275,46.89618180,-114.03450290,1.17652655,957.05163574,
54.378431,-0.0431,0.1076,0.8185,-0.4681,-0.3890,-1.5768,-0.1735,-0.1158,0.3342,14.1398,3.1964,-41.8094,310.5955,-9.4763,0.3927,46.89618180,-114.03450290,1.17652655,957.05163574,
54.472219,0.0795,0.1821,0.9008,0.5614,0.5500,-1.0122,-0.1121,-0.1642,0.1084,13.1272,2.5376,-41.9192,309.2170,-8.9667,1.4368,46.89618180,-114.03450290,1.17652655,957.05163574,
54.572782,0.0828,0.2077,0.9810,0.4453,0.8427,-0.6126,0.0085,-0.1568,-0.3255,12.8222,3.5136,-41.8948,309.8234,-9.4718,2.1175,46.89618180,-114.03450290,1.17652655,957.05163574,
54.673030,0.0546,0.1644,1.0070,0.1099,0.2920,0.3176,0.1124,0.0294,-0.4032,12.0536,3.4404,-41.4678,312.1161,-9.9584,2.1390,46.89618180,-114.03450290,1.17652655,957.05163574,
54.773508,0.0700,0.0882,1.0789,0.5788,-0.5086,0.8424,-0.0591,-0.0002,-0.2591,12.2488,4.6482,-41.4312,314.2133,-9.5841,1.3818,46.89618180,-114.03450290,1.17652655,957.05163574,
54.873583,0.0387,0.1105,0.8889,0.3284,-0.2733,-0.7551,-0.0301,0.0655,-0.0300,12.3952,5.0386,-40.8822,314.9725,-9.0888,1.0383,46.89618180,-114.03450290,1.17652655,957.05163574,
54.973870,0.0346,0.1942,0.7398,0.1281,0.6195,-2.9582,-0.0771,-0.0436,0.0957,12.1512,4.2944,-40.3820,314.8123,-9.4416,0.7693,46.89618180,-114.03450290,1.17652655,957.05163574,
55.074055,0.0196,0.1994,0.9506,0.2484,0.4180,-0.4559,0.3573,0.1146,0.1732,12.1634,4.3798,-40.2722,314.1904,-10.0397,0.6782,46.89619060,-114.03451310,1.11104381,957.05163574,
55.174477,0.0181,0.2813,1.1305,0.1374,1.0921,1.5907,0.0179,-0.0507,0.0829,12.2610,3.2086,-40.1990,313.3192,-11.5849,0.9466,46.89619060,-114.03451310,1.11104381,957.05163574,
55.274678,-0.0398,0.1183,0.9649,-0.7410,-0.5804,0.1733,0.1729,-0.0595,0.1605,12.6880,3.7088,-40.0770,313.3421,-10.9327,1.4554,46.89619060,-114.03451310,1.11104381,957.05163574,
55.375036,-0.0138,0.1203,0.8934,-0.2429,-0.3443,-0.8704,-0.0759,0.1116,0.1225,12.1756,4.4896,-39.8452,312.7804,-10.2880,1.4956,46.89619060,-114.03451310,1.11104381,957.05163574,
55.475923,-0.0151,0.1741,0.7983,-0.2988,0.2576,-2.0304,-0.0203,-0.0653,0.1305,12.0780,4.1236,-39.1010,311.8306,-10.3773,1.2392,46.89619060,-114.03451310,1.11104381,957.05163574,
55.575769,0.0627,0.1528,0.9874,0.4448,0.0430,-0.0735,0.0914,0.0458,0.0025,11.8828,4.1846,-39.3206,311.3424,-10.2148,1.5984,46.89619060,-114.03451310,1.11104381,957.05163574,
55.675963,0.0815,0.1406,1.1711,0.7022,-0.0236,0.9138,-0.1322,-0.1169,-0.2096,11.4924,3.8064,-38.1616,311.7404,-11.0783,1.6235,46.89619060,-114.03451310,1.11104381,957.05163574,
55.776319,0.0759,0.0833,1.3234,0.8357,-0.8525,3.0420,-0.2218,0.1802,-0.1553,10.9190,3.9162,-38.4666,312.9199,-10.7804,1.7143,46.89619060,-114.03451310,1.11104381,957.05163574,
55.876817,0.0311,0.1104,1.0567,0.2207,-0.4044,0.8476,-0.0567,0.0063,-0.0472,10.9800,4.4896,-37.6004,313.4012,-10.3684,1.5245,46.89619060,-114.03451310,1.11104381,957.05163574,
55.976712,0.0131,0.1855,0.7412,0.0539,0.2091,-2.1574,0.1406,0.1247,-0.0059,10.5286,3.6112,-37.8322,313.4859,-10.6616,1.2695,46.89619060,-114.03451310,1.11104381,957.05163574,
56.077249,-0.0021,0.1848,0.8448,-0.0618,0.3121,-1.7118,-0.0641,0.0784,0.0244,10.8702,4.1236,-37.1856,313.3905,-11.1035,0.5273,46.89620040,-114.03452170,1.20931387,957.05163574,
56.177521,0.0401,0.2129,1.0541,0.5032,0.2289,0.3612,0.2913,0.0138,0.1689,11.8950,3.4282,-36.1486,312.6165,-11.7743,-0.1654,46.89620040,-114.03452170,1.20931387,957.05163574,
56.277692,0.1464,0.0774,1.2811,1.5154,-0.8046,2.4649,-0.3556,-0.2467,0.0655,12.2366,3.0012,-36.2706,311.6249,-12.1983,0.0752,46.89620040,-114.03452170,1.20931387,957.05163574,
56.378101,-0.0074,0.1290,1.0061,0.0047,-0.3857,-0.1027,-0.4135,-0.1706,0.1426,12.1634,3.1842,-36.1608,311.0056,-12.0048,0.3118,46.89620040,-114.03452170,1.20931387,957.05163574,
56.478495,-0.0218,0.1217,0.8819,-0.1829,-0.3367,-1.0192,-0.1915,0.0016,0.1766,11.1874,4.0870,-35.9168,310.0310,-10.5323,0.8303,46.89620040,-114.03452170,1.20931387,957.05163574,
56.578474,0.0584,0.1713,0.8927,0.4601,0.2609,-1.0454,-0.2121,-0.0744,0.0610,11.5534,3.9406,-35.9168,309.0684,-9.8413,1.4063,46.89620040,-114.03452170,1.20931387,957.05163574,
56.678932,0.0330,0.1771,0.9396,0.1620,0.3673,-0.4494,0.1483,0.1164,0.0742,11.4070,4.3920,-35.5874,308.9068,-9.3071,1.7804,46.89620040,-114.03452170,1.20931387,957.05163574,
56.779067,0.1021,0.0990,1.2884,0.7872,-0.4485,2.8072,0.0384,-0.0646,-0.0883,11.1508,4.3920,-34.3186,308.9452,-9.7365,2.4241,46.89620040,-114.03452170,1.20931387,957.05163574,
56.879599,0.0502,0.0564,1.2754,0.0664,-0.9032,2.9409,-0.0117,0.0609,0.0439,10.9556,4.7092,-35.5752,309.5916,-9.8214,3.4026,46.89620040,-114.03452170,1.20931387,957.05163574,
56.979705,0.0194,0.1134,1.0168,-0.2803,-0.2706,0.2631,-0.2654,-0.0241,-0.0175,10.1138,4.8190,-34.7212,309.4458,-9.8397,3.6111,46.89620040,-114.03452170,1.20931387,957.05224609,
57.081308,0.0584,0.1708,0.8450,0.1425,0.3825,-1.3644,-0.0544,0.2056,0.0297,10.4920,5.6120,-33.8428,309.1275,-9.0068,3.2388,46.89620950,-114.03453010,1.25483584,957.05224609,
57.181228,0.0650,0.2323,0.8135,0.2823,1.0558,-1.7984,-0.1436,-0.0258,-0.0138,10.1382,5.7706,-32.7814,308.8865,-8.8811,2.5017,46.89620950,-114.03453010,1.25483584,957.05224609,
57.281945,0.0869,0.2004,0.9305,0.3120,0.6034,-0.3156,0.6648,-0.0395,0.1517,9.4794,4.6970,-32.5984,308.9820,-9.2437,3.7164,46.89620950,-114.03453010,1.25483584,957.05224609,
57.382115,-0.0961,0.2040,1.0075,-1.5156,0.5139,0.4140,0.2326,0.2264,0.1903,9.8332,4.1968,-32.2934,308.5250,-11.3988,3.5632,46.89620950,-114.03453010,1.25483584,957.05224609,
57.482506,0.0656,0.1413,0.9916,0.0559,-0.4416,0.2566,0.1779,-0.0665,0.2912,9.8942,2.5498,-32.3422,307.3997,-11.9450,2.8955,46.89620950,-114.03453010,1.25483584,957.05224609,
57.582830,-0.0002,0.1325,0.9455,-0.2983,-0.3579,-0.3675,-0.2271,0.2064,-0.0588,10.0894,3.4160,-31.0368,307.0655,-11.3889,2.9088,46.89620950,-114.03453010,1.25483584,957.05224609,
57.683063,-0.0272,0.1961,0.8951,-0.5785,0.3410,-0.9520,-0.0389,-0.0846,0.1335,10.3822,4.5628,-30.4756,306.6982,-10.8540,2.2414,46.89620950,-114.03453010,1.25483584,957.05224609,
57.783453,0.0000,0.1478,1.0636,-0.4161,-0.1193,0.7982,0.1677,-0.1149,0.1575,9.9430,3.8796,-30.3902,306.1089,-10.7167,3.1043,46.89620950,-114.03453010,1.25483584,957.05224609,
57.883689,0.0353,0.2438,1.0855,-0.1403,0.5243,1.1347,0.1978,-0.1245,0.0933,10.5530,3.0378,-29.9998,305.2954,-11.9410,4.2247,46.89620950,-114.03453010,1.25483584,957.05224609,
57.983834,0.0891,0.1240,1.0179,0.1999,-0.5619,0.5685,0.1114,0.1499,0.2550,10.5286,2.7450,-30.4268,304.3767,-12.0782,4.3712,46.89620950,-114.03453010,1.25483584,957.04644775,
58.085334,0.0767,0.1185,1.0008,0.1786,-0.4659,0.1447,-0.2220,0.1363,0.4043,11.7486,3.6112,-30.1950,302.4615,-11.1372,3.9193,46.89621740,-114.03453930,1.25379026,957.04644775,
58.184991,0.0302,0.1704,0.7925,-0.0624,0.1398,-2.0547,-0.0395,0.3118,0.5184,12.1146,3.5380,-31.0490,299.7153,-10.7136,2.7633,46.89621740,-114.03453930,1.25379026,957.04644775,
58.285294,0.0908,0.1742,0.9401,0.7852,0.1054,-0.5655,0.2352,0.2445,0.4920,13.9202,2.1838,-30.8904,296.3088,-11.0636,1.8265,46.89621740,-114.03453930,1.25379026,957.04644775,
58.385853,0.0662,0.2124,1.1047,0.4255,0.2258,0.7955,0.0541,0.1223,0.3537,14.3228,0.6222,-33.1718,293.6952,-12.4194,1.2942,46.89621740,-114.03453930,1.25379026,957.04644775,
58.487094,-0.1116,0.0394,1.3022,-1.1140,-1.3246,3.3679,0.3523,0.1619,0.3596,15.1646,1.8788,-34.5260,292.2459,-11.0873,0.9750,46.89621740,-114.03453930,1.25379026,957.04644775,
58.587813,0.0249,0.1409,0.9777,0.0561,-0.4313,-0.0207,-0.0755,-0.2262,0.1509,14.8474,-0.4636,-35.5508,290.4464,-12.3917,1.7008,46.89621740,-114.03453930,1.25379026,957.04644775,
58.688233,0.0452,0.1515,0.8463,0.1284,-0.2624,-1.3009,0.0596,0.0338,-0.0482,14.1276,-0.6588,-37.0392,290.1372,-11.8175,2.4235,46.89621740,-114.03453930,1.25379026,957.04644775,
58.788183,0.0306,0.1849,0.9468,0.0131,0.0184,-0.3508,0.0999,-0.0176,-0.1714,14.0178,-0.8540,-37.0392,290.8375,-12.1923,2.3118,46.89621740,-114.03453930,1.25379026,957.04644775,
58.888888,0.0449,0.2410,0.8789,0.2100,0.3290,-0.9321,0.3420,-0.0259,-0.3050,14.0056,-1.6226,-39.2962,292.1480,-13.4433,1.9120,46.89621740,-114.03453930,1.25379026,957.04644775,
58.988918,0.0075,0.2368,1.0848,-0.1221,0.2314,1.2458,0.1734,0.0087,-0.6311,12.6026,-2.3180,-39.4060,294.9916,-14.1748,2.0288,46.89621740,-114.03453930,1.25379026,957.04528809,
59.089532,0.0015,0.1380,1.1212,-0.0784,-0.6515,2.0361,0.0508,0.1183,-0.4705,12.7856,-0.7808,-40.9554,298.4283,-13.2655,1.4219,46.89622200,-114.03455080,1.22110832,957.04528809,
59.189837,0.0242,0.1738,0.8827,0.1751,-0.1697,-0.9667,-0.2009,-0.1077,-0.2166,12.5660,0.2806,-41.7728,300.3687,-12.6762,0.8684,46.89622200,-114.03455080,1.22110832,957.04528809,
59.289893,-0.0161,0.2300,0.6873,-0.2103,0.3807,-2.7776,0.0762,0.0540,-0.0886,12.7246,0.0122,-42.3096,301.2324,-12.5154,0.6140,46.89622200,-114.03455080,1.22110832,957.04528809,
59.390138,0.0830,0.2248,0.9002,0.6261,0.3219,-0.9608,-0.0059,0.1591,-0.0193,12.7490,0.3904,-42.2974,301.5488,-12.6891,0.3875,46.89622200,-114.03455080,1.22110832,957.04528809,
59.490311,0.1031,0.2806,1.1171,1.3274,0.8148,1.3142,0.0259,0.4466,-0.2645,14.3960,0.6466,-42.7244,301.7664,-13.1499,-1.0760,46.89622200,-114.03455080,1.22110832,957.04528809,
59.590796,-0.0417,0.0640,1.4458,0.2918,-1.2218,4.6143,0.0762,0.2279,-0.4579,15.8600,0.8906,-42.5170,303.8185,-12.4704,-2.9181,46.89622200,-114.03455080,1.22110832,957.04528809,
59.690884,-0.0806,0.0965,0.9851,-0.1940,-0.9641,0.1095,-0.1480,-0.3020,-0.0500,14.9328,0.2440,-42.7488,305.4079,-12.3103,-2.7011,46.89622200,-114.03455080,1.22110832,957.04528809,
59.791304,-0.0489,0.1648,0.7756,-0.1816,-0.2045,-1.8790,-0.0480,-0.2107,0.1205,13.3834,0.4148,-44.3226,305.6238,-11.8287,-0.9525,46.89622200,-114.03455080,1.22110832,957.04528809,
59.891971,0.0616,0.1381,0.9563,0.7082,-0.2281,-0.4111,-0.0951,-0.1802,-0.0595,12.7734,1.2566,-44.6154,305.3392,-10.9528,0.5663,46.89622200,-114.03455080,1.22110832,957.04528809,
59.992002,0.0858,0.2457,0.8661,0.7550,0.6408,-1.1805,0.1451,-0.1357,-0.2688,12.0902,1.4396,-45.6646,306.0800,-11.5719,1.0216,46.89622200,-114.03455080,1.22110832,957.08056641,
60.092228,0.0270,0.1784,1.0549,0.0935,0.0653,0.7999,-0.2773,-0.1467,-0.5503,11.3948,2.2082,-45.1034,309.0164,-11.6387,2.0299,46.89622800,-114.03456640,1.16274834,957.08056641,
60.195722,0.0963,0.1074,1.0299,0.8767,-0.3815,0.5315,0.1469,0.0694,-0.1769,12.0048,3.9162,-45.2742,311.1405,-9.8780,0.6029,46.89622800,-114.03456640,1.16274834,957.08056641,
60.298689,0.0707,0.1041,0.9846,0.6725,-0.2615,-0.1698,-0.1798,-0.0183,-0.3646,12.3708,4.7702,-45.3596,312.8092,-9.4507,0.9844,46.89622800,-114.03456640,1.16274834,957.08056641,
60.395198,-0.0399,0.1468,0.7741,-0.2565,-0.0331,-2.0468,0.1453,0.1677,-0.1456,12.8222,4.6238,-45.8964,314.2129,-9.8298,-0.0064,46.89622800,-114.03456640,1.16274834,957.08056641,
60.493019,-0.0075,0.1530,0.8890,0.1508,0.0177,-1.1065,0.1613,0.1027,0.0703,13.6762,4.5262,-46.1160,314.4084,-10.3410,-0.7005,46.89622800,-114.03456640,1.16274834,957.08056641,
60.595063,-0.0372,0.1980,1.0419,-0.0163,0.1304,0.5826,0.3691,0.0563,0.1687,14.0666,2.2814,-46.3966,313.4722,-11.9924,-1.0046,46.89622800,-114.03456640,1.16274834,957.08056641,
60.695023,-0.0212,0.1001,1.3602,-0.0568,-1.0893,3.8302,0.1892,0.0560,0.2270,13.2736,1.9276,-45.9696,312.8395,-12.1799,-0.4299,46.89622800,-114.03456640,1.16274834,957.08056641,
60.795625,-0.0636,0.0458,1.2111,-0.2689,-1.2108,2.3719,-0.1524,0.0383,0.0588,13.1882,2.1838,-46.2868,311.9672,-12.4524,-0.0121,46.89622800,-114.03456640,1.16274834,957.08056641,
60.895492,-0.0085,0.0937,0.9058,-0.0321,-0.6970,-0.5760,0.0786,0.0712,0.2487,13.2614,1.7446,-45.9818,310.7072,-10.5573,-0.3168,46.89622800,-114.03456640,1.16274834,957.08056641,
60.994329,-0.0044,0.1176,0.8437,0.0726,-0.2612,-1.6418,-0.2871,-0.1175,-0.0836,13.2492,0.6344,-46.6528,310.1908,-10.5172,-0.0759,46.89622800,-114.03456640,1.16274834,957.08056641,
61.095144,0.0054,0.1022,1.0460,0.0229,-0.3728,0.4100,0.0204,-0.1887,-0.1470,12.3098,2.0862,-46.7016,310.9378,-9.3681,0.6166,46.89622800,-114.03456640,1.16274834,957.09790039,
61.195305,-0.0189,0.1763,0.9653,-0.2225,0.1476,0.1672,0.3195,0.0296,-0.2815,11.6876,1.5616,-47.0310,312.3695,-10.1523,1.1873,46.89623520,-114.03457980,1.07155299,957.09790039,
61.295732,0.0705,0.1065,1.0756,0.5519,-0.3891,0.8208,-0.0341,0.0870,-0.2933,11.5778,1.3664,-46.7260,314.1940,-10.3310,0.9463,46.89623520,-114.03457980,1.07155299,957.09790039,
61.396349,0.0260,0.1237,0.9940,0.2885,-0.2508,-0.0958,-0.1719,0.0522,-0.2346,11.9682,1.4884,-47.1408,315.6886,-10.3961,0.1640,46.89623520,-114.03457980,1.07155299,957.09790039,
61.496795,0.0140,0.1483,0.9030,0.2144,-0.0408,-0.6746,-0.0106,0.0047,-0.0110,11.6266,3.0256,-46.4576,316.4491,-9.7247,-0.2805,46.89623520,-114.03457980,1.07155299,957.09790039,
61.597195,0.0560,0.1611,0.9813,0.5888,0.2692,-0.2042,-0.1222,-0.0026,-0.0756,12.0902,2.9768,-46.7870,316.7294,-9.3430,-0.0800,46.89623520,-114.03457980,1.07155299,957.09790039,
61.697443,-0.0008,0.1542,0.9929,0.1452,0.2573,-0.0808,-0.0324,0.0773,0.0312,12.8344,3.7820,-46.7626,317.0929,-8.8514,-0.4363,46.89623520,-114.03457980,1.07155299,957.09790039,
61.797625,0.0089,0.1329,1.0112,0.3326,0.0471,0.0742,0.0407,0.0316,0.2294,13.1638,4.2822,-46.6528,316.3001,-8.9523,-0.6226,46.89623520,-114.03457980,1.07155299,957.09790039,
61.898406,-0.0128,0.1644,0.9705,0.0328,0.1389,-0.0693,0.1510,0.0787,0.3686,13.6152,2.7816,-46.5918,314.5800,-9.5552,-0.7276,46.89623520,-114.03457980,1.07155299,957.09790039,
61.998200,-0.0212,0.1024,1.0516,0.0072,-0.2887,0.6527,-0.0212,0.0327,0.2793,13.5908,2.4888,-46.9212,312.7926,-9.6172,-0.5491,46.89623520,-114.03457980,1.07155299,957.10479736,
62.098269,-0.0666,0.1544,0.9119,-0.4515,0.0695,-0.6900,0.1332,-0.0059,0.3792,13.3956,1.2078,-46.3112,310.8941,-10.0153,-0.5557,46.89623950,-114.03458780,1.07045376,957.10479736,
62.198572,-0.0576,0.1545,0.9138,-0.4403,0.0226,-0.6909,0.0323,-0.1056,0.2594,13.8348,0.6954,-46.5430,309.0385,-10.1924,-0.2271,46.89623950,-114.03458780,1.07045376,957.10479736,
62.298934,-0.0662,0.0886,1.1456,-0.5504,-0.4222,1.4894,-0.1861,0.0616,0.0145,13.7616,1.2200,-47.1652,308.3755,-9.2366,0.2202,46.89623950,-114.03458780,1.07045376,957.10479736,
62.399208,-0.0718,0.1576,0.9980,-0.4344,0.2762,0.0090,-0.0164,0.1096,-0.0028,14.4448,1.1224,-46.6406,307.9343,-9.1332,-0.7808,46.89623950,-114.03458780,1.07045376,957.10479736,
62.499511,-0.0573,0.1679,0.9679,-0.2415,0.3369,-0.2964,-0.0027,-0.0856,-0.0489,14.4326,1.2078,-47.0676,307.8067,-9.4614,-1.1895,46.89623950,-114.03458780,1.07045376,957.10479736,
62.600025,-0.0297,0.1500,1.0038,-0.0748,0.1061,0.1508,0.0094,-0.0564,-0.1275,14.7132,1.2200,-47.7020,308.3575,-9.3991,-0.9574,46.89623950,-114.03458780,1.07045376,957.10479736,
62.700714,-0.0242,0.1855,0.9218,-0.0104,0.4343,-0.5990,0.1068,-0.0494,-0.1260,14.3716,1.4884,-46.6284,309.2318,-9.5630,-0.8694,46.89623950,-114.03458780,1.07045376,957.10479736,
62.800934,-0.0196,0.1677,1.0345,0.0202,0.2683,0.3989,0.0305,-0.1178,-0.2013,13.4078,1.3786,-46.6284,310.3312,-9.6697,-0.4171,46.89623950,-114.03458780,1.07045376,957.10479736,
62.901061,-0.0255,0.1691,0.9611,-0.0986,0.3559,-0.4531,-0.0000,-0.2168,-0.1512,13.5176,1.7446,-47.4702,311.3110,-10.0264,-0.1533,46.89623950,-114.03458780,1.07045376,957.10479736,
63.001428,0.0029,0.1752,0.9546,-0.1556,0.2472,-0.3753,-0.0444,-0.0553,-0.0256,13.3834,2.6352,-48.0802,312.1264,-10.1318,0.3471,46.89623950,-114.03458780,1.07045376,957.12792969,
63.101572,0.0107,0.1877,0.9755,0.1789,0.4280,-0.2478,-0.1073,-0.0061,-0.1041,13.1272,3.0622,-47.8484,312.4270,-9.9761,0.2163,46.89624160,-114.03459300,1.00102699,957.12792969,
63.206508,-0.0070,0.1918,0.9518,0.0688,0.4578,-0.2201,0.0609,0.0069,-0.1057,13.0540,2.1472,-47.8728,313.0432,-9.9023,-0.0119,46.89624160,-114.03459300,1.00102699,957.12792969,
63.307488,-0.0022,0.1865,0.9798,0.0403,0.4198,-0.1705,0.0133,-0.0902,-0.1147,12.2854,2.3302,-48.3974,313.7066,-10.1545,0.1691,46.89624160,-114.03459300,1.00102699,957.12792969,
63.407005,0.0021,0.1869,0.9820,-0.0144,0.3023,-0.0727,0.0883,-0.0910,-0.0095,12.0780,1.8666,-47.4580,314.2204,-10.5105,0.7038,46.89624160,-114.03459300,1.00102699,957.12792969,
63.502656,0.0084,0.2345,0.8167,0.0396,0.6504,-1.6933,-0.0552,-0.1207,-0.0077,11.8828,1.8422,-47.6654,314.2885,-11.1614,1.1402,46.89624160,-114.03459300,1.00102699,957.12792969,
63.607174,-0.0326,0.1679,0.9966,-0.6535,0.0249,0.2683,0.0380,-0.0021,0.1173,11.9316,2.7450,-48.5926,314.7117,-10.3037,1.2923,46.89624160,-114.03459300,1.00102699,957.12792969,
63.707307,-0.0158,0.2073,0.9444,-0.2604,0.5000,-0.3795,0.0389,0.0301,0.0742,11.6632,2.8182,-48.0558,314.2725,-10.5203,1.2484,46.89624160,-114.03459300,1.00102699,957.12792969,
63.803476,0.0028,0.1646,0.9877,-0.0893,0.1139,0.0211,0.0098,-0.0099,0.0821,11.5900,2.9158,-47.5312,313.8885,-10.3634,1.2554,46.89624160,-114.03459300,1.00102699,957.12792969,
63.903749,0.0203,0.1794,0.9590,0.0621,0.2849,-0.3248,0.0257,-0.0464,0.0231,11.9194,2.4766,-48.3852,313.5690,-10.4868,1.2907,46.89624160,-114.03459300,1.00102699,957.12792969,
64.004528,0.0073,0.1739,0.9895,-0.0925,0.1863,0.1107,0.0624,0.0218,0.0143,10.9068,1.8178,-48.5072,313.5816,-10.6008,1.5277,46.89624160,-114.03459300,1.00102699,957.12792969,
64.108946,-0.0351,0.1655,0.9637,-0.3351,0.1061,-0.1938,-0.0027,0.2069,0.1263,11.6144,2.2570,-48.2876,313.1089,-10.6780,1.3199,46.89624110,-114.03459420,0.78878176,957.12792969,
64.207796,0.0247,0.2033,0.9781,0.1730,0.4987,-0.1162,-0.0846,0.0397,0.1428,12.2976,2.1594,-47.4458,311.8992,-10.4461,1.0050,46.89624110,-114.03459420,0.78878176,957.12792969,
64.307814,0.0257,0.1786,0.9912,0.1687,0.2752,0.0337,0.0100,-0.0304,0.1021,12.1756,2.1228,-48.6170,311.1852,-10.2782,1.1227,46.89624110,-114.03459420,0.78878176,957.12792969,
64.408161,0.0231,0.1730,1.0170,0.0709,0.2088,0.2871,0.0433,-0.0216,-0.0238,11.6022,1.8178,-47.4580,310.9887,-10.3334,1.5839,46.89624110,-114.03459420,0.78878176,957.12792969,
64.506144,-0.0119,0.1766,0.9752,-0.2669,0.1857,-0.1729,0.0519,-0.0262,0.0270,11.9804,1.7690,-47.1408,311.0867,-10.7251,1.6841,46.89624110,-114.03459420,0.78878176,957.12792969,
64.608342,0.0065,0.1624,0.9959,-0.0883,0.0452,0.1019,-0.0006,0.1754,0.1294,11.8706,1.7446,-47.9826,310.5799,-10.7293,1.6327,46.89624110,-114.03459420,0.78878176,957.12792969,
64.708599,0.0267,0.2047,0.9763,0.1418,0.4410,-0.1120,-0.0111,0.0305,0.0786,12.3098,1.2444,-47.7874,309.6810,-10.7980,1.3886,46.89624110,-114.03459420,0.78878176,957.12792969,
64.809005,0.0219,0.1779,1.0002,0.0986,0.1613,0.1227,0.0306,0.0102,0.0002,12.3464,1.6104,-47.6776,309.4416,-10.9035,1.2966,46.89624110,-114.03459420,0.78878176,957.12792969,
64.908523,0.0085,0.1991,0.9214,-0.0185,0.2297,-0.5113,0.0044,-0.0448,-0.0410,12.2122,1.0614,-47.2628,309.5289,-11.2856,1.3619,46.89624110,-114.03459420,0.78878176,957.12792969,
65.009687,0.0096,0.1785,0.9972,-0.0495,0.1781,0.1140,-0.0810,0.0947,0.0248,12.9076,1.4884,-48.0070,309.6677,-10.9730,1.5139,46.89624110,-114.03459420,0.78878176,957.11987305,
65.110871,0.0034,0.1942,0.9724,-0.0518,0.3403,-0.1384,0.0143,0.0893,0.0020,12.1512,1.5860,-47.8850,309.5306,-10.8216,1.0812,46.89624040,-114.03459380,0.55232722,957.11987305,
65.218208,0.0054,0.1773,0.9774,0.0088,0.1155,-0.0415,0.0345,0.0167,-0.0500,12.3952,2.1716,-47.6654,309.7040,-10.8920,0.8497,46.89624040,-114.03459380,0.55232722,957.11987305,
65.317728,-0.0122,0.1748,0.9839,-0.0818,0.1432,-0.0366,-0.0126,0.0330,-0.0894,12.9320,1.6714,-47.6776,310.0478,-10.9663,0.5965,46.89624040,-114.03459380,0.55232722,957.11987305,
65.418638,-0.0448,0.1618,1.0013,-0.1594,0.0681,0.2039,-0.0226,0.0161,-0.1699,13.2370,1.8910,-47.6776,310.6960,-10.7830,0.2229,46.89624040,-114.03459380,0.55232722,957.11987305,
65.518977,-0.0040,0.1903,0.9991,0.0729,0.3129,0.0925,0.0198,-0.0360,-0.0405,13.2248,1.5372,-46.7260,310.9604,-10.8587,0.2231,46.89624040,-114.03459380,0.55232722,957.11987305,
65.618855,-0.0237,0.1837,0.9909,-0.1725,0.1845,0.0402,0.0416,-0.0337,-0.0744,12.4196,1.3420,-47.7874,311.2570,-11.1264,0.3372,46.89624040,-114.03459380,0.55232722,957.11987305,
65.712039,-0.0339,0.1677,1.0120,-0.2933,0.0038,0.1769,-0.0215,-0.0367,0.0377,12.7612,0.8296,-47.9094,311.4791,-11.2991,0.4118,46.89624040,-114.03459380,0.55232722,957.11987305,
65.815287,0.0149,0.1978,0.9908,0.1532,0.1776,0.0275,0.0159,0.0630,0.1716,13.1638,1.9886,-46.7138,310.7257,-11.4317,0.4507,46.89624040,-114.03459380,0.55232722,957.11987305,
65.918492,0.0140,0.1822,1.0196,0.1613,0.1457,0.2853,-0.0330,0.0338,0.0130,13.0174,1.4274,-46.8358,310.1452,-11.4042,0.4969,46.89624040,-114.03459380,0.55232722,957.08398438,
66.019389,-0.0173,0.1777,0.9443,-0.0792,0.0187,-0.4084,0.0466,0.0766,-0.0388,13.0784,1.1468,-47.3726,310.1324,-11.6826,0.1288,46.89623990,-114.03459310,0.38222653,957.08398438,
66.119030,-0.0093,0.1843,0.9521,0.0289,0.0825,-0.3426,-0.0188,0.0425,-0.0865,13.5298,0.9150,-47.9216,310.4123,-11.8770,-0.2311,46.89623990,-114.03459310,0.38222653,957.08398438,
66.219760,-0.0073,0.2049,0.9259,0.0595,0.2445,-0.5345,-0.0045,-0.0713,-0.0406,13.7738,1.2322,-46.8480,310.9180,-11.8891,-0.2196,46.89623990,-114.03459310,0.38222653,957.08398438,
66.320010,-0.0187,0.1917,1.0146,-0.1510,0.2136,0.2842,-0.0202,-0.0190,-0.0304,12.8954,1.3908,-47.8972,311.3301,-11.4452,0.2577,46.89623990,-114.03459310,0.38222653,957.08398438,
66.420036,-0.0309,0.2026,0.9660,-0.1259,0.2257,-0.1145,0.0558,-0.0387,-0.0316,13.6762,1.3908,-47.5922,311.3184,-11.5726,0.1704,46.89623990,-114.03459310,0.38222653,957.08398438,
66.519158,-0.0335,0.1791,0.9862,-0.2291,0.0819,0.0064,-0.0115,-0.0214,0.0333,12.9930,1.4030,-47.7996,311.4199,-11.6106,0.1622,46.89623990,-114.03459310,0.38222653,957.08398438,
66.618972,-0.0173,0.1871,0.9957,-0.0787,0.1283,0.0900,0.0161,-0.0167,0.0935,13.2004,1.4274,-47.6898,311.0086,-11.6276,0.2160,46.89623990,-114.03459310,0.38222653,957.08398438,
66.719385,0.0218,0.2007,0.9723,0.2126,0.2201,-0.0346,0.0487,0.0038,0.0654,12.8100,1.3054,-47.2628,310.4442,-11.8160,0.4066,46.89623990,-114.03459310,0.38222653,957.08398438,
66.814883,0.0196,0.1978,0.9792,0.1901,0.1926,-0.0609,-0.0479,-0.0287,0.0074,12.6026,1.0980,-47.3726,310.2932,-11.9332,0.5834,46.89623990,-114.03459310,0.38222653,957.08398438,
66.915326,0.0070,0.2041,0.9589,0.0143,0.2360,-0.2095,0.0251,-0.0544,0.0234,12.5660,0.5490,-46.9700,310.2808,-11.8866,0.7829,46.89623990,-114.03459310,0.38222653,957.08398438,
67.015758,-0.0027,0.1853,0.9686,-0.0569,0.1284,-0.2019,-0.0547,-0.0569,-0.0388,12.5294,0.3538,-47.8240,310.4113,-11.8861,1.0086,46.89623990,-114.03459310,0.38222653,957.07824707,
67.116416,-0.0046,0.1865,0.9643,-0.1345,0.1194,-0.1850,-0.0221,-0.0142,0.0571,12.0902,0.7686,-47.2750,310.4075,-11.6723,1.0839,46.89623840,-114.03459490,0.24843433,957.07824707,
67.216792,0.0207,0.1909,0.9878,0.0954,0.1930,0.0464,-0.0128,0.0228,0.0100,12.1390,1.3298,-47.1530,310.1888,-11.4540,1.1951,46.89623840,-114.03459490,0.24843433,957.07824707,
67.317036,0.0094,0.1812,0.9804,0.0585,0.1069,-0.0385,-0.0135,0.0430,-0.0492,11.9194,0.9394,-47.2628,310.2796,-11.4192,0.9420,46.89623840,-114.03459490,0.24843433,957.07824707,
67.417725,-0.0006,0.1851,0.9783,-0.0144,0.1172,-0.0912,-0.0084,0.0045,-0.0401,12.4562,1.7202,-47.4580,310.5062,-11.4027,0.6951,46.89623840,-114.03459490,0.24843433,957.07824707,
67.518471,0.0012,0.1922,0.9794,-0.0065,0.1774,-0.0593,0.0134,-0.0035,-0.0131,12.4196,1.0004,-46.5308,310.6241,-11.4122,0.6820,46.89623840,-114.03459490,0.24843433,957.07824707,
67.618542,0.0006,0.1848,1.0001,-0.0077,0.1484,0.1194,0.0005,-0.0159,-0.0143,12.3952,1.0736,-47.7996,310.7500,-11.4385,0.7212,46.89623840,-114.03459490,0.24843433,957.07824707,
67.718989,-0.0094,0.1903,0.9722,-0.1061,0.1483,-0.1110,0.0462,-0.0076,0.0419,12.6026,1.2688,-47.7996,310.7021,-11.5936,0.7443,46.89623840,-114.03459490,0.24843433,957.07824707,
67.819481,-0.0011,0.1877,0.9710,-0.0238,0.1169,-0.1384,0.0093,0.0078,0.0209,12.2000,1.1346,-47.8972,310.5008,-11.7553,0.8177,46.89623840,-114.03459490,0.24843433,957.07824707,
67.919584,0.0057,0.1832,0.9927,0.0189,0.0746,0.0314,-0.0370,0.0002,0.0332,12.5050,1.0858,-47.3726,310.3489,-11.7028,0.8262,46.89623840,-114.03459490,0.24843433,957.07824707,
68.019965,0.0120,0.2034,0.9569,0.1187,0.2441,-0.2668,0.0293,0.0165,-0.0058,13.0418,1.0370,-48.5438,310.2086,-11.7435,0.7516,46.89623840,-114.03459490,0.24843433,957.07128906,
68.120355,-0.0108,0.1836,0.9961,-0.1202,0.0953,0.0476,-0.0467,-0.0028,-0.0399,12.2366,1.2444,-47.0432,310.3853,-11.7415,0.7155,46.89623820,-114.03459490,0.16604170,957.07128906,
68.220737,0.0088,0.1887,0.9571,0.0616,0.1343,-0.2023,0.0558,0.0147,0.0083,12.6514,0.4636,-47.1774,310.4395,-11.8443,0.6189,46.89623820,-114.03459490,0.16604170,957.07128906,
