# tool=multi_record
# schema_version=2
# sensors=accelerometer|linear_acceleration|gyroscope|barometer|magnetometer|light|orientation|gps
# Inertial correction: sensor=g_force; operation=add; unit=m/s^2; x=-0.10726921; y=-0.2757522; z=0.038988113
# Inertial correction: sensor=linear_acceleration; operation=add; unit=m/s^2; x=0.0; y=0.0; z=0.0
# Inertial correction: sensor=gyroscope; operation=add; unit=rad/s; x=0.0; y=0.0; z=0.0
time,gFx,gFy,gFz,ax,ay,az,wx,wy,wz,p,Bx,By,Bz,I,Azimuth,Pitch,Roll,Latitude,Longitude,Speed (m/s),Altitude (m),
0.068826,0.0468,0.5014,0.7149,0.4383,-0.5935,-1.0901,0.3071,-0.0560,0.3010,908.3549,2.4278,-14.4814,-50.4104,5362.0747,352.3889,-36.3167,-0.0790,0.00000000,0.00000000,0.00000000,0.00000000,
0.168468,-0.0033,0.6463,0.5200,-0.0061,0.1718,-2.3564,0.6448,-0.2540,-0.4072,908.3298,1.6592,-18.3000,-49.5564,5362.0747,352.5308,-40.7613,0.2994,0.00000000,0.00000000,0.00000000,0.00000000,
0.268508,0.1163,0.6327,0.8887,1.0344,0.3349,0.9910,-0.4183,-0.5960,-0.4204,908.4218,0.4026,-17.2386,-49.3124,5362.0747,356.2034,-39.5261,0.8547,0.00000000,0.00000000,0.00000000,0.00000000,
0.368977,0.1801,0.6721,0.8869,1.5407,0.8290,0.8082,-0.4218,-0.7497,-0.1405,908.3854,-2.2570,-16.9702,-49.1782,5362.0747,359.1147,-37.9711,1.6845,0.00000000,0.00000000,0.00000000,0.00000000,
0.469229,-0.0201,0.5199,0.5870,-0.3314,-0.4236,-2.1226,0.1212,0.2897,-0.0752,908.3070,-2.7694,-14.7498,-49.9590,5362.0747,0.7761,-36.3493,1.8418,0.00000000,0.00000000,0.00000000,0.00000000,
0.569253,-0.0028,0.5944,0.6482,-0.2849,0.4495,-1.7883,-0.7089,-0.4845,-0.2878,908.1984,-3.1598,-13.5298,-50.6544,5362.0747,1.8183,-35.2080,2.5617,0.00000000,0.00000000,0.00000000,0.00000000,
0.669489,0.0472,0.6078,0.9265,-0.0033,0.8627,0.8377,0.3128,-0.1680,0.0642,908.3023,-4.6848,-12.2122,-50.2884,5362.0747,4.1711,-33.2861,3.4072,0.00000000,0.00000000,0.00000000,0.00000000,
0.769698,0.0831,0.6673,0.9330,0.3145,1.0256,1.1451,0.1740,0.1431,0.0772,908.3445,-5.2338,-14.0300,-51.0814,4041.2437,4.8504,-36.1823,3.6928,0.00000000,0.00000000,0.00000000,0.00000000,
0.869737,0.0859,0.4493,1.0184,0.2160,-0.9932,2.1133,0.7341,-0.2461,0.7105,908.3866,-4.9044,-13.7006,-50.4348,4041.2437,2.8252,-35.7290,4.4774,0.00000000,0.00000000,0.00000000,0.00000000,
0.969902,-0.1272,0.5140,0.7794,-2.4165,-0.6835,-0.1668,-0.0937,0.5331,0.7022,908.1997,-8.3082,-16.8848,-49.4466,4041.2437,1.1543,-37.5914,7.8763,0.00000000,0.00000000,0.00000000,0.00000000,
1.070019,0.0908,0.4075,0.5508,-0.0351,-1.4618,-2.4694,0.0613,0.7589,0.9979,908.2259,-4.7702,-15.7746,-49.6540,4041.2437,353.0687,-36.1908,6.2847,0.00000000,0.00000000,0.00000000,0.00000000,
1.170356,0.2157,0.4432,0.7510,1.2245,-0.5709,-1.0449,-1.2449,0.3859,0.6921,908.2687,-2.3180,-13.7128,-50.6666,4041.2437,345.7728,-32.4514,6.1632,0.00000000,0.00000000,0.00000000,0.00000000,
1.270502,0.1303,0.4446,0.9163,0.4954,0.1558,0.2109,-0.6541,0.5914,0.4061,908.4248,0.0854,-8.7230,-51.8134,4041.2437,341.5266,-27.5709,5.4879,0.00000000,0.00000000,0.00000000,0.00000000,
1.371590,0.1081,0.1541,0.9417,0.5037,-1.7229,0.1004,-0.6381,0.3325,1.2654,908.4294,3.0988,-5.7584,-52.0696,4041.2437,336.4164,-21.4997,3.5270,0.00000000,0.00000000,0.00000000,0.00000000,
1.471520,0.5280,0.0483,1.0190,3.4768,-1.7597,0.5652,-1.5159,-0.6152,0.9403,908.2420,0.3172,-2.3668,-51.2034,4041.2437,329.5361,-15.4367,11.2339,0.00000000,0.00000000,0.00000000,0.00000000,
1.571717,-0.1064,-0.2125,0.6983,-2.8761,-2.3774,-2.7162,-0.7439,-0.1351,2.7674,908.2042,1.8056,5.2826,-51.4108,4041.2437,319.9367,-3.3281,11.1418,0.00000000,0.00000000,0.00000000,0.00000000,
1.671802,0.4466,-0.1972,1.1666,0.8943,-0.3958,2.0938,-1.2138,-3.4404,4.0230,908.3134,-4.3310,9.7844,-49.9590,4041.2437,298.4620,7.4343,20.9469,0.00000000,0.00000000,0.00000000,0.00000000,
1.772200,1.2065,0.0400,1.0368,5.7367,3.5866,3.1629,1.1911,-3.1012,3.4829,908.3940,-20.8498,14.2618,-44.9204,4041.2437,263.8496,22.9099,38.8471,0.00000000,0.00000000,0.00000000,0.00000000,
1.872263,0.8928,-0.5412,0.2300,0.7448,-1.4258,-2.4530,2.3334,-5.8380,2.6668,908.5138,-30.9880,14.3838,-39.6378,1829.9738,229.9576,37.2800,53.2882,0.00000000,0.00000000,0.00000000,0.00000000,
1.972514,1.2287,-0.4191,0.6376,3.7279,0.5480,4.7473,1.7842,-1.5617,-0.0620,908.5552,-47.0676,13.3102,-20.7522,1829.9738,175.8753,70.0838,61.8233,0.00000000,0.00000000,0.00000000,0.00000000,
2.072456,0.9658,-0.2796,-0.2356,0.5375,1.5981,-3.6401,-0.5032,0.6367,0.0685,908.2982,-48.3486,10.1748,-19.4590,1829.9738,165.2859,73.4624,64.7811,0.00000000,0.00000000,0.00000000,0.00000000,
2.172926,0.5335,-0.3815,0.2628,-2.9545,-0.0891,-1.1866,-2.0406,5.1407,-1.6400,908.1262,-40.5772,10.1260,-32.1592,1829.9738,208.2760,43.6718,60.8982,0.00000000,0.00000000,0.00000000,0.00000000,
2.272943,0.5424,-0.5620,0.9022,-0.3608,-1.6588,1.6293,-2.7616,5.6831,-0.9814,908.0664,-17.4948,16.7018,-45.5182,1829.9738,244.2375,28.6756,39.1268,0.00000000,0.00000000,0.00000000,0.00000000,
2.373317,0.6224,-0.0973,0.4560,2.2497,2.5537,-3.7111,-0.0555,-0.0772,-2.5336,908.1224,-8.0642,17.6534,-48.3242,1829.9738,259.0232,22.9290,30.3534,0.00000000,0.00000000,0.00000000,0.00000000,
2.473297,0.0991,-0.4531,0.5053,-6.3954,-1.8811,-1.7842,1.0898,0.0078,-0.7774,909.0676,-20.6302,11.1508,-45.7622,1829.9738,269.7886,13.3510,42.7323,0.00000000,0.00000000,0.00000000,955.70001221,
2.573721,0.3874,-0.5126,0.9130,-3.5428,-5.6300,3.9309,1.1141,-2.1920,0.3830,908.9509,-26.6814,2.5010,-44.0542,1829.9738,271.7520,4.1824,52.0210,46.89218370,-114.03113300,0.00000000,955.70001221,
2.674100,0.6608,-0.3796,0.1635,-1.2921,-3.0348,-3.9688,2.1001,2.1120,1.5023,908.5814,-29.5362,-5.8316,-42.6878,272.4037,256.4645,3.6925,54.7608,46.89218370,-114.03113300,0.00000000,955.70001221,
2.774192,0.5982,-0.5377,0.5043,-1.4576,-3.9820,-2.3509,0.9274,0.7982,1.8466,908.1923,-24.2414,-7.2468,-45.6402,326.6437,242.2742,6.8990,45.5568,46.89222590,-114.03112870,0.88010699,955.70001221,
2.874571,0.9446,-0.2130,0.6089,2.4656,1.2226,-0.5696,-0.3926,0.1207,2.1174,908.5211,-22.9482,-5.2094,-46.6528,352.9037,219.7374,25.1505,43.9913,46.89222590,-114.03112870,0.88010699,955.70001221,
2.975616,1.1833,-0.1158,0.9546,5.3152,2.6737,2.7229,1.0432,-0.5322,0.5629,908.2070,-23.8998,-4.3676,-45.1278,352.9037,209.8018,28.7451,39.8855,46.89222590,-114.03112870,0.88010699,955.70001221,
3.075393,0.3125,-0.2484,0.8674,-2.9111,1.0663,1.9979,-1.1680,0.0745,-1.6942,908.1383,-22.9360,-3.8430,-47.0310,352.9037,215.9270,24.7858,38.9774,46.89222590,-114.03112870,0.88010699,955.70001221,
3.175686,0.5136,0.0435,0.7359,-1.1300,3.5209,0.2915,0.1931,-1.4554,-0.0229,908.2217,-23.0824,-2.2814,-46.1404,352.9037,221.2850,22.0825,39.0607,46.89222590,-114.03112870,0.88010699,955.70001221,
3.275752,0.4883,-0.0442,0.1904,-2.8259,2.0110,-2.3746,2.1770,-3.7039,-2.4276,908.1291,-36.6976,-9.4916,-36.5878,352.9037,217.9169,18.8995,55.3500,46.89222590,-114.03112870,0.88010699,955.70001221,
3.376283,0.8304,0.1463,0.3563,-0.0565,2.1286,-1.8520,-0.8889,0.8365,-0.0797,909.0726,-35.6362,-16.8604,-35.3312,53.3713,227.0203,3.8475,57.1890,46.89222590,-114.03112870,0.88010699,955.70001221,
3.476301,1.3630,0.2095,0.4856,4.3925,2.3245,0.3618,-1.0177,-1.0557,-0.8736,909.1342,-37.8322,-13.2370,-34.6724,90.9850,233.1429,4.4743,63.5307,46.89222590,-114.03112870,0.88010699,956.30761719,
3.576560,0.8307,-0.0334,0.1550,-1.4189,0.3810,-0.0153,1.3274,-3.6606,0.8411,908.6747,-46.7626,-12.9686,-23.3386,99.4550,226.7619,9.8490,80.6379,46.89226660,-114.03115510,0.74466616,956.30761719,
3.676559,1.3242,-0.0707,0.3763,3.4157,0.5597,2.4264,1.0757,2.4251,0.8871,908.6877,-48.7390,-12.6270,-18.2146,99.4550,193.3765,36.7486,83.2959,46.89226660,-114.03115510,0.74466616,956.30761719,
3.777367,0.4295,0.0020,0.1856,-4.2172,1.6883,-1.1731,0.8886,1.7136,0.6332,908.5884,-46.8724,-10.4432,-24.6440,99.4550,192.4191,28.9726,70.6427,46.89226660,-114.03115510,0.74466616,956.30761719,
3.877455,0.6388,-0.1665,0.5475,-2.9239,0.4769,0.6634,0.3749,1.0159,-0.7077,908.8762,-41.7362,-10.1260,-31.8908,99.4550,198.7382,20.2739,61.3647,46.89226660,-114.03115510,0.74466616,956.30761719,
3.977767,1.6157,-0.2214,0.4534,5.0378,-0.9050,1.6727,2.5750,-4.6446,3.6279,909.1771,-44.0542,-18.1048,-25.1076,155.5275,203.9159,11.6870,67.7617,46.89226660,-114.03115510,0.74466616,956.30761719,
4.078045,1.1896,-0.1200,-0.2311,2.6101,0.8693,-2.9002,-3.0683,3.1241,-1.4106,907.9769,-53.5458,-14.5912,-3.0622,155.5275,99.6873,101.3299,80.8991,46.89226660,-114.03115510,0.74466616,956.30761719,
4.178971,1.1701,0.1526,0.9257,2.7902,1.9668,6.0953,-2.0763,-0.7709,-1.8052,909.8557,-44.2372,-12.8466,-26.4374,155.5275,210.8130,12.9854,71.4637,46.89226660,-114.03115510,0.74466616,956.30761719,
4.278882,0.2963,-0.0189,0.4129,-5.9317,0.0271,0.9763,-0.2406,1.0085,0.0589,908.7744,-44.0908,-14.5790,-26.8034,155.5275,231.3796,-1.4926,69.6081,46.89226660,-114.03115510,0.74466616,956.30761719,
4.379317,0.6093,-0.0144,0.4248,-3.3014,0.1107,0.1607,-0.4381,0.2344,-0.0989,908.5465,-42.3950,-12.9930,-29.7436,171.2812,229.5898,2.2600,66.7760,46.89226660,-114.03115510,0.74466616,956.30761719,
4.479245,1.1154,0.2147,0.0540,1.2976,1.8960,-1.5465,0.5196,-1.7176,0.0422,908.5045,-44.7984,-13.9080,-26.2544,171.2812,235.4194,-5.1357,71.4990,46.89226660,-114.03115510,0.74466616,955.76959229,
4.579776,1.1783,0.2310,0.1426,2.3682,2.8435,-0.7559,0.8937,-3.3553,0.0637,909.4923,-47.1530,-14.7986,-21.2646,75.6637,250.4591,-18.6564,78.3547,46.89229460,-114.03118930,0.71975780,955.76959229,
4.679910,1.5437,-0.0384,0.2080,5.9335,-0.3183,1.5062,-0.0880,0.9805,-0.2263,908.5092,-50.9960,-14.3594,-10.3944,75.6637,309.3607,-82.4958,87.1270,46.89229460,-114.03118930,0.71975780,955.76959229,
4.780238,0.6002,-0.0687,0.2742,-3.2159,-0.2830,1.8326,1.0070,0.1950,0.6046,908.3458,-51.0204,-12.5904,-13.5298,75.6637,210.4401,16.4531,84.4937,46.89229460,-114.03118930,0.71975780,955.76959229,
4.880645,0.3520,0.0730,0.1586,-6.1572,1.3882,-0.7113,1.3537,2.3859,-0.0242,907.9624,-49.6052,-12.7124,-18.0072,75.6637,208.3073,9.3442,75.9030,46.89229460,-114.03118930,0.71975780,955.76959229,
4.982812,1.0443,-0.0065,0.3311,0.4369,-0.0251,0.3083,0.8437,-1.4236,-0.6528,908.6525,-47.5922,-16.9214,-20.1544,75.6637,218.5483,-5.9763,73.6595,46.89229460,-114.03118930,0.71975780,955.76959229,
5.081058,0.5236,-0.3947,-1.7964,-1.2730,-4.1712,-16.8139,2.8444,-0.8731,-1.2696,908.0786,-52.9724,-14.8230,5.8560,75.6637,41.0949,151.7887,82.5726,46.89229460,-114.03118930,0.71975780,955.76959229,
5.180827,1.0595,-0.3786,0.4692,-0.2202,-3.0207,1.6666,-5.3555,1.6036,-0.9932,908.3717,-49.8004,-16.0552,-14.8108,35.0363,194.6826,10.5469,76.5398,46.89229460,-114.03118930,0.71975780,955.76959229,
5.280858,0.6205,0.1351,0.5641,-1.9404,1.1912,4.5601,-0.9377,0.2632,-0.9598,908.4958,-49.5686,-14.2130,-15.3964,35.0363,234.0269,-9.5610,80.8052,46.89229460,-114.03118930,0.71975780,955.76959229,
5.381057,0.4101,-0.0350,0.1281,-5.6902,-0.2909,-0.9805,-0.8712,0.3386,0.3415,908.2075,-48.0070,-14.2008,-18.6904,35.0363,233.0288,-7.3548,77.6199,46.89229460,-114.03118930,0.71975780,955.76959229,
5.482065,1.0978,0.1385,0.1820,0.7539,1.2835,0.1240,-0.1416,-2.3553,-0.0442,908.4612,-49.3246,-12.8710,-18.2268,35.0363,236.8204,-6.9425,80.4323,46.89229460,-114.03118930,0.71975780,955.69970703,
5.582442,1.2781,0.5123,-1.2593,3.0859,5.6141,-14.3844,-1.1224,4.7103,-0.5071,908.3089,-50.5080,-14.0422,-15.3842,35.0363,237.3659,-9.0761,77.6182,46.89229320,-114.03118710,1.04857659,955.69970703,
5.682588,1.3121,-0.1501,-0.0661,1.9603,-1.1114,-0.6960,0.5829,-1.1495,0.6377,908.0433,-51.9964,-14.1642,-8.5766,35.0363,331.6135,-104.6510,88.1718,46.89229320,-114.03118710,1.04857659,955.69970703,
5.783026,0.9717,-0.2348,0.1882,0.5423,-2.2746,1.4418,-0.2427,0.7059,0.8730,908.5765,-51.9720,-11.2362,-9.1256,35.0363,173.4979,53.0725,88.8687,46.89229320,-114.03118710,1.04857659,955.69970703,
5.883256,0.3716,0.0140,0.1427,-5.7481,1.1090,0.7760,1.7409,0.7367,0.2382,907.7709,-52.8626,-10.3334,-9.5160,35.0363,172.5180,49.2200,83.0652,46.89229320,-114.03118710,1.04857659,955.69970703,
5.983833,0.7446,0.0118,0.1212,-2.3725,1.5652,-1.3605,0.0082,0.1427,-0.9569,908.1820,-50.8374,-10.8824,-15.8112,35.0363,194.7455,20.0024,75.9195,46.89229320,-114.03118710,1.04857659,955.69970703,
6.084372,1.7120,-0.2971,-0.6615,6.6173,-2.4626,-4.9114,4.9163,-5.5622,1.2121,908.6674,-52.7650,-18.6782,-0.8418,0.0050,7.4151,-156.8889,87.4379,46.89229320,-114.03118710,1.04857659,955.69970703,
6.184029,1.4618,-0.1421,-0.3187,5.8283,-0.7261,-4.0801,-4.1801,2.6792,0.0884,908.7661,-53.2774,-16.4456,-1.4152,0.0050,143.1681,52.8514,88.9932,46.89229320,-114.03118710,1.04857659,955.69970703,
6.284291,1.0020,-0.0089,0.7293,0.1174,-0.0711,6.2832,-2.4621,-1.6002,-1.0487,908.3572,-51.3498,-12.1512,-12.4562,0.0050,221.7534,4.4626,85.5132,46.89229320,-114.03118710,1.04857659,955.69970703,
6.385111,0.6179,0.1019,0.1340,-3.5121,0.8463,0.0106,1.5956,0.4758,0.2925,908.0850,-52.1062,-13.6640,-10.5774,0.0050,241.2379,-16.9658,82.3133,46.89229320,-114.03118710,1.04857659,955.69970703,
6.484798,0.7235,0.0317,-0.0550,-2.6893,0.2296,-2.3432,-0.8831,0.0128,0.0811,908.0291,-51.5938,-12.9930,-11.8340,0.0050,230.2787,-9.5212,80.3727,46.89229320,-114.03118710,1.04857659,955.69970703,
6.585206,0.6667,0.3486,-0.9624,-4.3234,3.4272,-11.0160,-1.6902,6.0276,0.4250,908.1801,-51.4596,-11.9194,-14.0300,0.0050,246.1080,-22.5474,83.2259,46.89229320,-114.03118710,1.04857659,955.69970703,
6.685211,1.1257,0.0181,0.1040,-0.5820,0.1823,-0.4497,0.4399,-3.7733,0.0815,908.5437,-50.5934,-9.8576,-16.7384,0.0050,243.3721,-15.7308,82.4104,46.89229320,-114.03118710,1.04857659,955.76959229,
6.786758,1.3169,-0.0279,0.0371,3.8219,-0.4513,0.8835,0.1964,-0.4020,0.4785,908.5359,-52.3502,-12.1390,-5.8560,0.0050,358.2599,-131.7334,84.3409,46.89231030,-114.03118840,1.51634979,955.76959229,
6.885956,0.7392,-0.0526,0.0672,-1.6095,-0.6122,1.4289,2.2739,-0.6563,0.0364,908.0881,-53.9606,-10.5042,-2.5132,0.0050,46.3659,174.9254,86.3747,46.89231030,-114.03118840,1.51634979,955.76959229,
6.986687,0.2264,0.0312,-0.0829,-7.4274,0.2830,-0.0350,1.8018,0.9003,-0.6679,907.7050,-53.3018,-13.7616,0.4636,0.0050,11.4161,-164.0827,84.6406,46.89231030,-114.03118840,1.51634979,955.76959229,
7.086497,1.0022,0.0561,-0.2482,-1.4406,0.1223,-2.0888,0.0106,0.7527,-0.9764,908.1728,-51.9842,-18.1658,-2.2204,0.0050,297.1783,-96.0366,84.3389,46.89231030,-114.03118840,1.51634979,955.76959229,
7.186683,1.4471,0.0629,-0.6541,4.7749,0.3695,-6.2831,-0.4047,1.7292,1.0434,908.9744,-53.1432,-15.8234,2.2082,0.0050,342.3233,-154.1675,86.9323,46.89231030,-114.03118840,1.51634979,955.76959229,
7.286843,1.5713,0.3703,0.5071,4.8570,3.0389,4.7981,-4.0227,-1.1971,-0.5017,908.5538,-53.2164,-14.7010,-1.1468,0.0050,331.9488,-123.6927,84.6645,46.89231030,-114.03118840,1.51634979,955.76959229,
7.387302,0.4595,0.0091,0.1918,-4.2869,-0.2268,2.4104,0.1206,0.2877,0.1666,908.3157,-52.7162,-13.0052,-5.9902,0.0050,312.1169,-92.9905,84.4996,46.89231030,-114.03118840,1.51634979,955.76959229,
7.487754,0.5376,-0.0174,0.0151,-5.0834,-0.8503,-0.5607,-0.6786,0.3034,-0.0875,907.9785,-52.3502,-12.2976,-9.6868,0.0050,263.6591,-43.1179,83.9607,46.89231030,-114.03118840,1.51634979,955.76959229,
7.587849,0.7203,0.2890,-1.1064,-1.5470,1.8954,-8.8461,-0.3301,6.8335,0.2727,908.3425,-52.3136,-13.1882,-8.8694,0.0050,303.9423,-82.6119,83.3774,46.89231030,-114.03118840,1.51634979,955.76959229,
7.687977,1.6896,0.6296,0.0419,5.2412,4.9250,0.1182,1.3541,-4.0899,-0.8974,908.8168,-51.7158,-11.6632,-13.4932,0.0050,272.0620,-46.2301,81.7156,46.89231030,-114.03118840,1.51634979,955.76959229,
7.788087,1.4181,-0.2215,-0.0743,4.6378,-2.7038,0.0270,0.2543,0.6003,0.7854,908.2061,-53.4116,-14.7132,-0.9394,0.0050,354.6415,-134.3116,81.0422,46.89231030,-114.03118840,1.51634979,955.78173828,
7.888257,0.5658,-0.0926,0.1364,-3.3379,-1.1122,1.9137,1.3841,-1.5393,0.1933,908.0628,-54.1070,-9.4550,-3.9650,0.0050,26.0414,-165.9041,86.0870,46.89232090,-114.03119630,1.27563024,955.78173828,
7.988536,0.5248,0.0650,-0.1185,-5.1439,0.6594,0.4871,1.6190,1.7232,-0.4417,907.6603,-54.3876,-11.1874,2.6718,0.0050,21.3337,-173.8138,81.7309,46.89232090,-114.03119630,1.27563024,955.78173828,
8.088705,1.0644,-0.0227,-0.0847,0.2519,-0.7270,-0.5241,1.0309,-1.7905,-1.1134,908.4913,-52.4844,-17.4582,-1.1346,0.0050,326.9117,-122.9246,82.3413,46.89232090,-114.03119630,1.27563024,955.78173828,
8.188748,1.3258,-0.2557,-0.8459,1.5547,-4.6886,-8.1120,0.2690,0.0534,0.6307,908.9398,-53.4238,-16.0308,7.3078,0.0050,355.5631,-170.2578,80.7317,46.89232090,-114.03119630,1.27563024,955.78173828,
8.288884,1.2239,-0.0916,0.5099,2.6824,-0.9938,6.7396,-5.2143,-1.2938,-0.7024,908.5074,-54.0216,-12.4318,-2.3546,0.0050,7.9805,-154.4261,84.4461,46.89232090,-114.03119630,1.27563024,955.78173828,
8.389254,0.5884,0.1330,0.2507,-3.1581,0.7292,3.4910,1.3833,1.1464,0.1790,908.2542,-53.3628,-13.6518,-2.9280,0.0050,329.0200,-105.0898,83.1369,46.89232090,-114.03119630,1.27563024,955.78173828,
8.489665,0.6162,0.1075,-0.0292,-4.0894,0.4160,-0.5437,-0.0242,-0.3974,-0.2504,907.9513,-53.4116,-12.5050,-5.0142,0.0050,294.8627,-76.4857,84.5201,46.89232090,-114.03119630,1.27563024,955.78173828,
8.590169,0.8670,0.0808,-0.9414,-0.1954,-0.1560,-7.4147,-1.0965,5.2749,-0.1995,908.8084,-53.6922,-14.6522,-5.3924,0.0050,321.4742,-101.8494,81.6495,46.89232090,-114.03119630,1.27563024,955.78173828,
8.690429,1.0129,0.4461,-0.1849,0.2389,3.4885,-3.2221,0.8504,-2.0103,0.0009,909.1756,-51.6670,-13.3956,-13.3346,0.0050,276.0078,-51.2915,79.5566,46.89232090,-114.03119630,1.27563024,955.91119385,
8.790567,1.1901,0.0806,-0.0656,2.1082,-0.4217,-0.1833,0.4543,-1.1482,-0.2304,908.1645,-53.2530,-15.4940,-4.0382,0.0050,332.8084,-112.0965,80.4101,46.89232940,-114.03120220,1.31384277,955.91119385,
8.890926,0.9665,-0.0828,0.0860,0.1399,-1.7063,1.6143,1.6247,-0.1054,0.6851,908.2995,-53.4238,-14.9938,-0.6222,0.0050,343.2319,-125.8904,82.4844,46.89232940,-114.03120220,1.31384277,955.91119385,
8.991058,0.4635,0.0566,-0.1770,-5.1343,0.2424,0.0051,1.5024,-0.4363,-0.3566,907.7172,-53.4726,-12.9320,6.7588,0.0050,8.8784,-163.7864,79.3026,46.89232940,-114.03120220,1.31384277,955.91119385,
9.091255,0.8583,0.0291,-0.1809,-1.3051,-0.8430,-0.5024,0.2429,0.7050,-1.4660,908.2134,-52.6430,-17.2874,3.9650,0.0050,334.8147,-132.7715,79.6046,46.89232940,-114.03120220,1.31384277,955.91119385,
9.191702,0.8188,-0.5405,-1.3149,-1.6207,-6.5316,-13.0517,2.1872,1.9825,0.6960,908.9166,-51.6182,-19.0808,4.9654,0.0050,331.7048,-143.2806,80.5443,46.89232940,-114.03120220,1.31384277,955.91119385,
9.291698,1.3571,0.0158,0.2419,3.5232,-0.5277,3.2600,-5.5498,-1.1936,0.5075,908.5589,-52.8626,-16.9946,1.7568,0.0050,344.6687,-142.5490,80.9626,46.89232940,-114.03120220,1.31384277,955.91119385,
9.391765,0.8189,0.1139,0.4088,-0.8354,0.0649,5.8589,-0.7460,0.6580,-0.0681,908.1022,-52.6430,-15.1646,4.9898,6.0437,4.2215,-141.0924,75.9775,46.89232940,-114.03120220,1.31384277,955.91119385,
9.492520,0.5916,0.1166,0.0534,-4.0366,0.1311,0.7160,0.5065,0.9633,0.0650,908.1313,-53.1432,-14.4570,-2.8426,6.0437,315.9640,-96.5080,82.8010,46.89232940,-114.03120220,1.31384277,955.91119385,
9.592513,1.1484,0.1368,-0.4861,1.4672,0.3348,-3.3609,0.9407,0.8851,-0.4304,908.3338,-52.9480,-15.9576,-1.5128,0.0050,322.0351,-107.1577,81.3280,46.89232940,-114.03120220,1.31384277,955.91119385,
9.692751,1.1017,0.4810,-0.1079,2.5548,3.7434,-3.6914,0.5876,-2.0273,-0.3273,909.8923,-49.9590,-15.2744,-16.1650,0.0050,248.0452,-31.2880,74.4429,46.89232940,-114.03120220,1.31384277,955.91119385,
9.793226,1.2707,0.1132,-0.0257,2.9590,-1.0065,-0.0962,0.5781,-1.0622,-0.3047,908.1553,-52.1794,-17.8974,-7.0882,0.0050,305.6009,-91.5637,76.8741,46.89232940,-114.03120220,1.31384277,955.96722412,
9.893665,0.9956,-0.0757,0.0671,0.5208,-2.5863,1.7773,0.7038,-0.1784,0.4205,908.1646,-51.7036,-17.4582,-0.7076,0.0050,332.1206,-117.5618,75.7695,46.89233940,-114.03120750,1.41406071,955.96722412,
9.993684,0.6206,0.0397,-0.0636,-3.4245,-0.6060,0.5736,2.0031,-0.3480,0.0533,907.9220,-52.8260,-16.7018,2.3912,0.0050,337.6285,-130.4152,79.7683,46.89233940,-114.03120750,1.41406071,955.96722412,
10.094031,0.7471,0.0045,-0.1302,-2.2966,-1.1882,-0.3070,0.4344,0.8558,-0.9412,908.0970,-52.4478,-19.1296,2.3180,0.0050,322.1785,-122.7942,79.1073,46.89233940,-114.03120750,1.41406071,955.96722412,
10.194119,1.6049,-0.5548,-1.8300,8.0582,-6.2655,-15.9772,3.4770,1.0726,1.3815,909.2750,-51.6426,-21.3988,3.6234,0.0050,313.5579,-122.7086,78.3844,46.89233940,-114.03120750,1.41406071,955.96722412,
10.294886,1.2734,0.0052,-0.2003,2.3345,-0.9514,-0.9643,-4.9197,0.9771,1.4279,908.1782,-51.9842,-19.4590,6.9784,0.0050,330.6275,-140.2813,78.2795,46.89233940,-114.03120750,1.41406071,955.96722412,
10.394945,1.1207,0.1091,0.4073,1.7062,-0.0310,5.5255,-1.1205,-0.4259,0.0147,908.3394,-53.1920,-15.9454,0.5124,0.0050,347.7404,-132.9275,79.4556,46.89233940,-114.03120750,1.41406071,955.96722412,
10.495077,0.6139,0.0807,-0.0262,-3.4496,-0.0745,0.0301,0.2638,0.7539,0.0786,908.0982,-53.2774,-14.9206,-2.7450,0.0050,312.2885,-98.8759,82.9359,46.89233940,-114.03120750,1.41406071,955.96722412,
10.595441,0.8000,0.1080,-0.2771,-1.7937,0.2265,-2.4085,-0.3818,0.1348,0.0274,908.1590,-53.4360,-14.2252,-3.7942,0.0050,300.0340,-86.2298,83.7549,46.89233940,-114.03120750,1.41406071,955.96722412,
10.695588,1.5337,0.3739,-0.4126,5.2328,1.8368,-4.7406,-0.5116,-1.1395,-0.2268,909.7440,-49.3612,-13.2370,-18.3366,0.0050,303.1552,-85.7106,79.1663,46.89233940,-114.03120750,1.41406071,956.16833496,
10.796003,1.1423,-0.0494,-0.0217,1.9971,-2.0679,1.9352,0.4698,-2.4084,-0.0039,908.1324,-53.0822,-14.7254,-7.8446,0.0050,352.7022,-132.6841,73.1787,46.89234980,-114.03121580,1.42623198,956.16833496,
10.896236,1.1176,-0.2044,0.0921,2.1182,-3.5373,3.6637,0.5992,0.9811,0.6874,908.2876,-53.5946,-15.0670,-3.5990,0.0050,4.7787,-144.0213,69.9127,46.89234980,-114.03121580,1.42623198,956.16833496,
10.996252,0.4768,0.0422,0.0021,-4.6801,0.1109,2.3490,2.3964,-0.2311,0.4369,907.8484,-53.6800,-12.1756,-5.1118,0.0050,13.2288,-158.9355,76.5551,46.89234980,-114.03121580,1.42623198,956.16833496,
11.096601,0.6941,-0.0461,-0.1116,-2.7177,-0.2962,1.2427,-0.2950,-0.2250,-1.0655,907.9167,-53.4970,-12.3464,-0.8662,0.0050,15.3442,-167.2156,75.2198,46.89234980,-114.03121580,1.42623198,956.16833496,
11.198070,2.1227,-0.6640,-1.4587,10.1215,-5.6966,-7.3555,5.0325,-0.9582,1.6366,909.6481,-52.4234,-20.9840,5.6608,0.0050,2.6992,-158.6526,69.6170,46.89234980,-114.03121580,1.42623198,956.16833496,
11.298354,1.0128,0.0078,-0.2897,1.0269,0.3373,-0.9568,-5.3694,1.4633,0.2737,908.3797,-53.6556,-16.2626,6.1366,0.0050,11.9002,-172.6958,72.6595,46.89234980,-114.03121580,1.42623198,956.16833496,
11.398621,1.2640,0.2599,0.6129,3.2841,1.1979,8.5591,-1.3413,-1.0741,-0.4261,908.5358,-54.2168,-16.0186,-2.3546,0.0050,9.2309,-142.2971,73.8715,46.89234980,-114.03121580,1.42623198,956.16833496,
11.498917,0.4247,0.0540,0.0392,-5.2348,-0.5758,1.5607,0.6674,1.5531,0.5380,907.9785,-53.6556,-15.5428,-4.6726,0.0050,347.8048,-122.5040,78.4741,46.89234980,-114.03121580,1.42623198,956.16833496,
11.599458,0.8881,0.0485,-0.0539,-1.4291,-0.6455,0.1944,-0.5965,-1.0209,-0.2601,908.1506,-52.8992,-14.8840,-7.6372,0.0050,336.2713,-108.7825,80.3812,46.89234980,-114.03121580,1.42623198,956.16833496,
11.699518,1.3760,0.2722,-0.9610,2.5197,1.1139,-13.0144,-2.9915,2.0327,0.1308,909.1454,-51.3498,-14.4448,-12.7368,0.0050,293.7032,-59.5662,79.1458,46.89234980,-114.03121580,1.42623198,956.21105957,
11.799894,1.2671,0.1725,0.0285,3.1821,1.2727,0.5210,1.4067,-2.2811,-0.3799,908.1757,-52.8138,-13.4322,-8.7596,0.0050,340.7693,-105.0571,79.7923,46.89236310,-114.03122370,1.57282293,956.21105957,
11.901279,1.2967,-0.0450,-0.0161,3.4141,-1.6377,1.4037,0.6418,-0.5099,0.0843,908.2991,-53.7044,-17.0434,-1.2200,0.0050,1.5311,-130.2446,75.0188,46.89236310,-114.03122370,1.57282293,956.21105957,
12.001012,0.5638,0.0068,-0.0414,-3.8512,-0.5516,1.6646,1.9782,-1.5655,0.0341,907.9633,-53.6434,-14.7010,1.0858,0.0050,17.7305,-152.5471,76.3905,46.89236310,-114.03122370,1.57282293,956.21105957,
12.101053,0.4577,0.0431,-0.0097,-5.0003,-0.1349,2.3147,0.8691,1.3683,-0.5236,907.7299,-52.3380,-15.3964,6.0390,0.0050,13.2471,-157.0338,74.1814,46.89236310,-114.03122370,1.57282293,956.21105957,
12.201489,1.2922,-0.0169,-0.1243,2.0871,-0.9909,0.4884,0.9921,0.7509,-0.5019,908.5964,-52.3014,-21.2890,3.5258,0.0050,345.4060,-134.1318,75.1579,46.89236310,-114.03122370,1.57282293,956.21105957,
12.301448,1.4431,0.1366,-0.8579,3.6385,0.1316,-7.2059,-0.8669,-1.0406,0.0070,909.4750,-52.2160,-17.4826,10.7604,0.0050,355.4243,-164.1486,74.6306,46.89236310,-114.03122370,1.57282293,956.21105957,
12.401885,1.3521,-0.1652,0.4039,3.9017,-2.5022,6.1562,-4.6843,-2.2285,0.1848,908.4274,-53.1066,-17.1532,3.9772,0.0050,10.5775,-148.6974,74.7087,46.89236310,-114.03122370,1.57282293,956.21105957,
12.502421,0.4908,-0.0176,0.1657,-4.5278,-1.2464,3.4135,0.6587,0.9919,0.4027,908.0756,-53.1798,-16.7140,3.5624,5.8438,10.4787,-138.5891,76.2048,46.89236310,-114.03122370,1.57282293,956.21105957,
12.602831,0.7433,0.1571,-0.1158,-2.4040,0.7963,-0.0861,0.2086,-0.5468,-0.1234,908.1110,-54.2534,-14.5302,-0.9272,5.8438,359.6125,-131.4345,80.9833,46.89236310,-114.03122370,1.57282293,956.21105957,
12.702972,1.2924,0.1573,-1.0811,3.0455,0.7172,-12.3457,-2.5744,3.1505,-0.1605,909.3696,-52.4356,-15.1768,-11.4680,0.0050,269.0816,-38.7648,77.8639,46.89236310,-114.03122370,1.57282293,956.29949951,
12.803127,1.2825,0.2563,0.0726,1.6463,0.8899,-0.0332,0.3166,-1.6435,-0.2513,908.5360,-51.8256,-14.5668,-11.8828,0.0050,321.2060,-88.9824,75.8702,46.89237270,-114.03123150,1.39635515,956.29949951,
12.903093,1.2413,0.0287,-0.0543,2.9785,-1.8744,1.0292,0.1371,-1.1799,-0.2542,908.1359,-52.3258,-16.6286,-1.3176,0.0050,356.2598,-123.5957,70.8370,46.89237270,-114.03123150,1.39635515,956.29949951,
13.003691,0.7655,-0.0434,0.0094,-1.7771,-1.8412,1.9495,1.8163,-0.9087,0.2242,908.0946,-53.2042,-15.4696,2.1228,0.0050,7.7971,-137.0326,75.5392,46.89237270,-114.03123150,1.39635515,956.29949951,
13.103947,0.4801,0.1299,-0.1954,-4.4566,0.1102,1.2202,1.3086,0.5588,-0.6964,907.7827,-52.2648,-16.6774,10.1382,0.0050,13.3292,-154.3523,69.3907,46.89237270,-114.03123150,1.39635515,956.29949951,
13.204214,0.9888,0.0447,-0.3867,-0.2021,-1.2777,-0.7134,1.2869,1.3983,-1.4827,908.5139,-51.0570,-21.8502,5.7340,0.0050,350.0674,-137.6213,71.9524,46.89237270,-114.03123150,1.39635515,956.29949951,
13.304361,1.2783,0.0304,-0.5607,2.8024,-1.0795,-4.1564,0.6964,-3.4030,0.0267,909.6595,-51.5572,-20.6424,4.3920,0.0050,338.1771,-136.9729,76.7564,46.89237270,-114.03123150,1.39635515,956.29949951,
13.404635,1.4056,-0.0121,0.2788,4.4934,-1.3887,4.9706,-4.2407,-2.1541,0.2511,908.4142,-52.8748,-19.2272,4.7702,0.0050,4.3248,-144.5643,73.2410,46.89237270,-114.03123150,1.39635515,956.29949951,
13.504712,0.6693,0.0784,0.2570,-2.0732,-0.9413,5.0446,-0.3109,0.8801,0.2396,908.1080,-51.4596,-18.6782,6.2586,36.9450,11.3094,-136.5565,72.0414,46.89237270,-114.03123150,1.39635515,956.29949951,
13.604987,0.7563,0.1578,0.0225,-2.4214,0.0637,1.5292,0.9317,0.8312,-0.1040,908.1287,-53.1798,-17.1288,0.6832,31.6262,352.6588,-122.0949,77.8762,46.89237270,-114.03123150,1.39635515,956.29949951,
13.705298,1.1438,0.1150,-1.3425,2.2409,0.1527,-14.7318,-2.1281,1.7354,-0.2379,909.5761,-48.2022,-18.2146,-17.2142,7.6037,260.4681,-36.2992,71.4357,46.89237270,-114.03123150,1.39635515,956.39080811,
13.805356,1.3445,0.3883,0.0734,2.7798,2.5302,-0.7336,0.3553,-1.2045,-0.2918,908.3024,-50.5080,-18.2878,-12.7490,7.6037,287.8394,-60.8125,76.4620,46.89238320,-114.03124460,1.54243457,956.39080811,
13.905837,1.0465,-0.1097,0.0560,0.6236,-2.3529,0.5319,0.1109,-1.2926,0.1845,908.0789,-51.6670,-18.3488,-4.1358,7.6037,319.8790,-93.9918,79.4464,46.89238320,-114.03124460,1.54243457,956.39080811,
14.006181,0.8601,-0.0366,0.0516,-0.7705,-1.2804,0.9744,1.1229,-0.0909,0.5478,908.1339,-52.2526,-17.0556,-0.6954,7.6037,337.5469,-114.9663,83.3736,46.89238320,-114.03124460,1.54243457,956.39080811,
14.106320,0.6101,0.1073,-0.2662,-3.5800,0.8977,-1.4430,2.0311,-1.0645,-0.2428,907.9064,-53.5336,-15.2988,8.1740,7.6037,14.1490,-165.3508,79.1778,46.89238320,-114.03124460,1.54243457,956.39080811,
14.206398,0.9062,-0.0547,-0.6134,-0.7400,-1.1180,-4.0595,0.7432,1.4486,-1.5253,908.4792,-51.7158,-19.2638,5.5022,7.6037,352.9317,-149.1695,78.8361,46.89238320,-114.03124460,1.54243457,956.39080811,
14.306930,1.0579,-0.2898,-0.4327,0.3720,-3.6910,-4.3193,0.8915,-1.3424,0.6194,908.9076,-52.7772,-17.5924,3.2208,0.0050,351.1556,-157.0159,84.0142,46.89238320,-114.03124460,1.54243457,956.39080811,
14.407101,1.2743,-0.2445,0.3973,2.3684,-1.8519,3.9282,-5.1119,1.2306,-0.1520,908.4829,-53.5580,-14.1886,-1.1346,0.0050,18.5959,-168.3176,86.7677,46.89238320,-114.03124460,1.54243457,956.39080811,
14.508660,0.8309,0.1597,0.2993,-0.8961,1.1580,3.8423,0.2088,0.1717,-0.0398,908.4076,-52.9968,-13.7128,-3.2452,0.0050,349.9811,-126.0139,84.4837,46.89238320,-114.03124460,1.54243457,956.39080811,
14.607705,0.5520,0.0993,-0.0942,-4.6184,0.6730,-0.8646,-0.6060,-0.0279,0.0831,907.9647,-53.0334,-13.6640,-5.2582,0.0050,307.6408,-86.4417,86.3277,46.89238320,-114.03124460,1.54243457,956.39080811,
14.707500,0.9144,0.1967,-0.4706,-0.4217,1.0684,-2.8990,-0.7612,1.5076,-0.0814,908.1740,-53.6678,-13.5176,-3.8796,0.0050,0.4088,-134.0750,82.1655,46.89238320,-114.03124460,1.54243457,956.90863037,
14.808074,1.2696,0.4841,-0.2998,3.5321,3.9984,-4.0965,-0.1625,-1.0171,-0.2895,909.3942,-51.0448,-12.4440,-14.9084,0.0050,280.0068,-50.5847,82.2629,46.89239260,-114.03125440,1.31676018,956.90863037,
14.908198,1.0336,-0.0398,-0.0142,0.2481,-1.3534,0.5689,0.9183,-1.7511,0.1075,908.2038,-52.1184,-14.7010,-7.4298,0.0050,345.1711,-117.9573,83.2653,46.89239260,-114.03125440,1.31676018,956.90863037,
15.008519,1.2302,-0.1572,-0.0094,2.9718,-2.0786,1.1130,0.8088,0.9845,0.5296,908.3111,-53.6068,-15.8478,-1.6104,0.0050,3.3104,-141.3330,79.7560,46.89239260,-114.03125440,1.31676018,956.90863037,
15.108751,0.4443,-0.0093,-0.0477,-4.8387,0.1177,0.9248,2.3362,-0.8379,0.1717,907.9469,-53.8874,-12.7368,0.4026,0.0050,31.5293,-179.4293,81.7107,46.89239260,-114.03125440,1.31676018,956.90863037,
15.209058,0.8040,-0.0977,-0.0769,-1.9013,0.1150,0.6367,-0.0383,0.8505,-0.4341,907.8936,-54.2534,-11.6510,1.7080,0.0050,41.3289,163.4157,81.6342,46.89239260,-114.03125440,1.31676018,956.90863037,
15.310901,1.9123,-0.2995,-1.1068,6.5418,-1.4305,-4.8199,5.2456,-2.7965,1.0221,908.7715,-52.3014,-21.1304,7.2468,0.0050,359.4026,-159.8433,77.3421,46.89239260,-114.03125440,1.31676018,956.90863037,
15.409578,0.9837,-0.1253,-0.3568,1.5699,-0.2458,-3.3490,-4.3310,2.8764,-0.4619,908.4456,-53.6068,-13.4932,7.0638,0.0050,25.0409,163.8457,82.1124,46.89239260,-114.03125440,1.31676018,956.90863037,
15.509834,1.4128,0.0297,0.6024,3.3775,-0.2793,6.1458,-2.9425,-2.3652,-0.5981,908.7792,-52.1306,-14.3716,-9.5404,0.0050,322.2433,-103.4651,87.4809,46.89239260,-114.03125440,1.31676018,956.90863037,
15.610284,0.4168,0.0729,0.1684,-5.2984,0.1300,2.3471,0.9092,1.2922,0.3658,907.9438,-52.7406,-15.6648,-6.2830,0.0050,329.3330,-105.9457,83.9609,46.89239260,-114.03125440,1.31676018,956.90863037,
15.710533,0.7461,0.0914,-0.1063,-2.8670,0.4053,-1.2147,-0.9134,-1.0429,-0.2020,908.0183,-52.3258,-14.2130,-9.8454,0.0050,288.0789,-65.2392,85.5729,46.89239260,-114.03125440,1.31676018,957.00048828,
15.811205,1.0364,0.1971,-0.8324,-0.3214,1.6154,-7.8505,-1.5613,5.5820,0.5291,908.9671,-52.7162,-13.8470,-7.5030,0.0050,313.3844,-83.4542,84.8365,46.89240160,-114.03126240,1.31645715,957.00048828,
15.911064,1.1638,0.1598,0.0036,1.8405,1.8024,-0.8538,0.6512,-2.1933,0.0433,909.2195,-52.1184,-11.9682,-13.1882,0.0050,299.7581,-68.6775,84.8206,46.89240160,-114.03126240,1.31645715,957.00048828,
16.011270,1.3206,-0.1352,-0.0051,3.0822,-1.1498,0.8324,0.6665,0.3943,-0.2341,908.1319,-53.2774,-12.4684,-3.4160,0.0050,22.2574,-155.9948,84.0700,46.89240160,-114.03126240,1.31645715,957.00048828,
16.112167,0.6561,-0.1376,-0.0334,-2.6178,-0.7704,0.3167,2.4619,-0.7330,0.9009,908.2665,-53.9972,-9.0890,-4.5872,0.0050,90.4827,128.7510,85.2033,46.89240160,-114.03126240,1.31645715,957.00048828,
16.212200,0.7008,0.0522,-0.1372,-3.1680,2.2090,-0.2199,0.5391,-1.4481,0.6213,907.8723,-53.9850,-5.3436,-0.4392,0.0050,80.8046,129.7021,79.3634,46.89240160,-114.03126240,1.31645715,957.00048828,
16.312751,0.9752,-0.0353,-0.2905,-0.1071,0.3222,-1.0131,0.9582,-0.6301,-1.9691,908.0035,-53.9850,-9.1012,4.1114,0.0050,43.4042,165.4449,79.3031,46.89240160,-114.03126240,1.31645715,957.00048828,
16.412916,0.9501,-0.4017,-0.7058,-0.5321,-2.7711,-5.1181,0.3659,-0.5338,-0.1851,908.3235,-53.5824,-9.2354,9.8454,0.0050,40.5878,150.6833,76.7235,46.89240160,-114.03126240,1.31645715,957.00048828,
16.513375,0.9971,-0.4455,0.7351,0.0792,-3.2864,6.0068,-3.6157,2.0354,-1.1452,908.2633,-51.9232,-10.0040,-11.7486,0.0050,180.4377,36.7479,81.6259,46.89240160,-114.03126240,1.31645715,957.00048828,
16.613636,0.6984,0.2538,0.4395,-2.6948,2.5495,3.5727,0.0702,-0.2084,-0.6342,908.2266,-52.0574,-13.5420,-9.1988,0.0050,240.8330,-19.0188,85.6093,46.89240160,-114.03126240,1.31645715,957.00048828,
16.713840,0.4563,0.0751,0.0887,-5.2180,0.6224,-0.8339,-0.7770,0.3090,0.4571,907.9447,-51.0570,-14.1520,-13.5786,0.0050,233.9824,-14.6597,80.0357,46.89240160,-114.03126240,1.31645715,957.00048828,
16.813930,1.3889,0.1759,-0.2845,3.8231,1.5186,-3.2652,-0.6339,-2.0594,-0.4910,908.4534,-52.4112,-14.3106,-9.2110,0.0050,257.1238,-34.4041,85.5248,46.89240160,-114.03126240,1.31645715,957.00048828,
16.914199,1.1997,0.3937,-0.4471,1.9016,3.8091,-5.9178,1.4333,-2.6532,0.1785,910.2559,-51.3254,-13.6518,-14.4082,0.0050,245.5045,-18.6255,81.5345,46.89240160,-114.03126240,1.31645715,957.03692627,
17.014438,0.9585,-0.0554,0.0441,-0.3342,-0.4517,0.6679,1.6871,0.8253,0.4681,907.9452,-52.8260,-12.6148,-4.1724,0.0050,355.9635,-138.7402,88.1497,46.89241370,-114.03126690,1.40473258,957.03692627,
17.114483,0.8904,-0.1140,0.2223,-0.7981,-0.6770,1.2175,0.7167,-0.0115,0.6726,908.5698,-52.9968,-13.4444,-8.3326,0.0050,204.3025,6.1464,84.6637,46.89241370,-114.03126690,1.40473258,957.03692627,
17.215050,0.4852,0.0260,-0.1960,-4.8768,1.1926,-1.3302,1.6109,-1.3223,0.2560,907.9471,-54.0094,-10.9922,1.5128,0.0050,67.5984,131.0145,85.1817,46.89241370,-114.03126690,1.40473258,957.03692627,
17.314912,0.6654,-0.1481,-0.1859,-3.1359,-0.5878,-0.9772,-0.5383,0.7329,-0.9899,907.8842,-54.2046,-10.6872,4.2822,0.0050,47.7059,147.3481,83.8067,46.89241370,-114.03126690,1.40473258,957.03692627,
17.415491,1.6901,-0.4652,-0.7044,6.6907,-3.8641,-5.0748,4.5372,-1.7874,1.4360,909.0740,-53.8020,-15.0548,8.1862,0.0050,21.6329,169.9950,81.8334,46.89241370,-114.03126690,1.40473258,957.03692627,
17.516015,1.1052,-0.1269,-0.3566,0.9313,-0.2948,-2.8726,-4.9979,5.2268,1.4390,908.3197,-53.1066,-12.4074,8.3692,0.0050,34.9956,146.6348,82.9260,46.89241370,-114.03126690,1.40473258,957.03692627,
17.616280,1.1484,0.0270,0.4502,1.8053,1.2910,4.1788,-0.7738,-1.2801,-1.0930,908.4143,-54.5096,-8.9914,-6.6002,0.0050,143.0047,64.2181,84.8046,46.89241370,-114.03126690,1.40473258,957.03692627,
17.716550,0.6539,0.1457,-0.0752,-3.2039,1.8981,-1.6804,0.8724,0.6942,0.1387,908.1433,-53.3628,-10.1626,-6.8564,0.0050,191.5495,11.6964,84.2753,46.89241370,-114.03126690,1.40473258,957.03692627,
17.816865,0.7634,-0.0532,-0.2988,-2.2410,-0.1515,-3.6096,-1.0739,-1.0452,-0.0611,908.0396,-54.2046,-11.3216,-5.8194,0.0050,194.2718,9.4781,85.7795,46.89242520,-114.03127310,1.51311374,957.03692627,
17.917035,1.0727,0.0775,-0.4514,0.5620,1.0807,-5.2053,-0.5920,0.3709,0.0730,908.5923,-52.2160,-9.9552,-12.1634,0.0050,213.5712,-5.0270,86.4685,46.89242520,-114.03127310,1.51311374,957.03692627,
18.017308,1.3001,0.0696,0.0617,3.1183,0.9604,0.6137,0.5014,-1.2742,-0.2405,908.4792,-52.7772,-10.5042,-9.2110,0.0050,310.8351,-100.9774,88.9367,46.89242520,-114.03127310,1.51311374,957.03692627,
18.117690,1.2595,-0.1673,0.0098,2.7115,-1.4896,0.9234,0.2886,-0.4167,0.2594,908.3288,-53.9850,-11.7120,-3.1842,0.0050,12.7254,-166.3870,84.6798,46.89242520,-114.03127310,1.51311374,957.03692627,
18.217736,0.7772,-0.0231,-0.0519,-1.9300,0.3983,0.4177,2.4863,-1.4366,-0.0419,908.1809,-54.4120,-10.6140,-0.4880,0.0050,43.2166,157.3734,84.6084,46.89242520,-114.03127310,1.51311374,957.03692627,
18.318754,0.3569,0.0862,-0.1443,-6.0542,1.4608,-0.0148,0.2623,-0.1613,-0.7358,907.8578,-53.9728,-12.6514,5.0752,0.0050,14.6967,176.8148,80.7459,46.89242520,-114.03127310,1.51311374,957.03692627,
18.418167,1.1188,-0.3972,-0.3496,0.4314,-3.3022,-1.9470,1.3201,0.6334,-0.4365,908.4861,-52.4234,-18.2756,4.1480,0.0050,335.5340,-145.3446,81.1207,46.89242520,-114.03127310,1.51311374,957.03692627,
18.518570,1.2468,0.0664,-0.5888,3.0647,0.6935,-4.0880,-2.0578,-0.0923,0.0019,909.0029,-52.2770,-16.7872,9.6136,0.0050,347.8603,-170.5984,78.9777,46.89242520,-114.03127310,1.51311374,957.03692627,
18.618668,1.2782,-0.0763,0.5643,2.6899,-1.0869,5.9427,-2.0587,-1.4918,-0.4348,908.7909,-52.8016,-14.7132,-4.0260,0.0050,326.6573,-122.6909,86.6134,46.89242520,-114.03127310,1.51311374,957.03692627,
18.718987,0.4923,0.0925,0.0484,-4.7946,0.3921,0.9269,1.1999,0.7380,0.3410,908.1383,-52.4234,-16.2870,-2.5864,0.0050,319.3403,-115.3158,84.2985,46.89242520,-114.03127310,1.51311374,957.03692627,
18.819403,0.7435,0.0337,-0.1036,-2.5209,0.0291,-1.0425,-1.1187,-0.3927,0.0936,908.0576,-52.8504,-15.0914,-4.4530,0.0050,292.6113,-88.4552,86.4759,46.89242520,-114.03127310,1.51311374,957.22357178,
18.919906,1.1893,0.1887,-0.8262,0.6240,1.0951,-7.4900,-0.8505,4.8637,0.1296,908.3906,-52.3258,-14.8230,-7.8568,0.0050,264.3051,-54.8948,85.0187,46.89243510,-114.03128100,1.19049442,957.22357178,
19.020047,1.0933,-0.0053,-0.0081,1.3415,-0.0026,-0.5522,0.3935,-2.2609,-0.0253,908.6187,-52.3380,-14.3106,-9.9552,0.0050,292.2262,-80.9929,86.0904,46.89243510,-114.03128100,1.19049442,957.22357178,
19.120289,1.2915,-0.1410,0.0048,2.9996,-1.5270,0.9401,-0.0643,0.3172,0.4203,908.1717,-53.3384,-13.3712,-2.5986,0.0050,2.4593,-152.5766,83.8795,46.89243510,-114.03128100,1.19049442,957.22357178,
19.220848,0.7951,0.0378,0.0432,-1.2200,0.5996,1.1472,2.0053,-1.2289,0.0356,908.0948,-54.1436,-10.6872,-1.1346,0.0050,40.3871,166.3328,85.4030,46.89243510,-114.03128100,1.19049442,957.22357178,
19.321049,0.3916,0.0462,-0.1738,-5.8308,0.8397,-0.5461,0.7139,-0.1738,-0.4365,907.8893,-53.4360,-11.4436,3.1964,0.0050,18.8017,177.2622,82.9484,46.89243510,-114.03128100,1.19049442,957.22357178,
19.421333,1.1729,-0.0100,-0.4188,1.6365,-0.5331,-2.8613,0.4637,0.0349,-0.6356,908.4811,-52.8748,-17.4338,2.4766,0.0050,340.0739,-144.7247,81.7497,46.89243510,-114.03128100,1.19049442,957.22357178,
19.521361,1.3363,-0.0752,-0.7521,3.2504,-0.6658,-5.7762,0.6371,0.3837,-0.4683,908.4073,-52.9968,-13.6640,9.0646,0.0050,1.6117,179.9074,79.0138,46.89243510,-114.03128100,1.19049442,957.22357178,
19.621836,1.0170,-0.0127,0.5565,0.2279,0.4088,4.2094,-2.9649,-0.1653,-0.2794,908.4490,-53.1188,-15.2744,-3.0744,0.0050,218.0426,-17.2035,84.4245,46.89243510,-114.03128100,1.19049442,957.22357178,
19.722243,0.7361,0.0726,0.1249,-2.2060,0.5569,0.6208,0.2919,0.2066,0.0606,908.2866,-53.2774,-15.1890,-2.2326,0.0050,239.8755,-36.7507,84.9303,46.89243510,-114.03128100,1.19049442,957.18542480,
19.822138,0.7704,-0.0423,-0.1499,-2.2525,-0.5306,-2.4572,-0.8734,0.1089,0.2435,907.9200,-52.9480,-13.9202,-4.7458,0.0050,223.8335,-21.7543,83.6501,46.89244440,-114.03128820,1.22590256,957.18542480,
19.922247,0.8093,0.2551,-0.5026,-1.5425,2.0363,-4.1488,-0.6957,2.5239,0.4090,908.6111,-52.5210,-12.3098,-4.1602,0.0050,342.4733,-135.4764,83.8380,46.89244440,-114.03128820,1.22590256,957.18542480,
20.023056,1.1180,0.3644,-0.3422,1.4700,2.8750,-2.8888,0.0368,-0.8022,0.0745,908.9582,-52.6918,-12.7124,-10.3334,0.0050,326.0631,-117.1663,82.9224,46.89244440,-114.03128820,1.22590256,957.18542480,
20.123216,1.2659,0.0937,-0.0787,2.9045,0.1007,1.1034,1.3891,-1.4533,-0.3258,908.1339,-53.3384,-13.2004,-3.3306,0.0050,357.0561,-148.8438,77.3183,46.89244440,-114.03128820,1.22590256,957.18542480,
20.223295,0.9900,-0.0216,-0.1065,0.7108,-0.7496,1.2371,1.1227,-0.0424,0.0750,908.3104,-53.1920,-15.1890,1.8056,0.0050,358.4197,-154.9928,74.3774,46.89244440,-114.03128820,1.22590256,957.18542480,
20.323611,0.5962,0.0943,-0.1197,-3.2419,0.8834,2.0616,2.1797,-0.8323,-0.4474,908.0491,-52.3502,-15.1524,9.1256,0.0050,5.0836,-171.5272,70.6776,46.89244440,-114.03128820,1.22590256,957.18542480,
20.424257,0.7449,-0.0985,-0.2169,-2.6025,-0.9923,1.0876,-0.3484,1.1824,-0.8430,908.0259,-51.7280,-17.0068,9.1744,0.0050,356.1349,-167.9270,71.1532,46.89244440,-114.03128820,1.22590256,957.18542480,
20.524080,1.7827,-0.5216,-1.3422,4.3349,-5.2460,-2.8940,4.8271,-1.9668,0.9466,909.7581,-51.1424,-21.7770,5.4168,0.0050,348.0186,-159.5167,74.4215,46.89244440,-114.03128820,1.22590256,957.18542480,
20.623970,1.0571,0.0360,-0.3365,1.0135,1.2081,-2.3836,-4.5375,1.1464,0.5795,908.3863,-51.8378,-17.8852,11.8096,0.0050,354.5616,-177.1767,72.4765,46.89244440,-114.03128820,1.22590256,957.18542480,
20.724256,1.1444,-0.0256,0.3570,3.2115,-0.9524,6.0317,-2.2321,-1.2305,0.2829,908.6033,-52.4356,-16.7506,2.5010,0.0050,4.2512,-159.9134,75.4636,46.89244440,-114.03128820,1.22590256,957.18542480,
20.824721,0.4030,0.0562,0.0325,-5.5827,-0.1220,-0.4125,1.0151,2.3188,-0.1390,907.9844,-52.5332,-16.9214,-1.1102,5.3187,257.9644,-53.0466,81.9639,46.89244440,-114.03128820,1.22590256,956.90686035,
20.925043,0.9853,0.0818,-0.3511,0.0541,0.4550,-3.9044,-0.9212,-1.1405,-0.0364,908.0815,-53.6068,-14.9206,-0.5124,0.0050,260.3376,-57.1769,84.9581,46.89245830,-114.03129880,1.53135526,956.90686035,
21.025212,1.3307,0.2448,-0.4642,3.1210,1.8804,-5.9663,-0.9489,0.0968,-0.0237,909.4420,-51.5938,-12.7368,-12.8954,0.0050,246.4114,-37.5906,81.4475,46.89245830,-114.03129880,1.53135526,956.90686035,
21.125480,1.2510,-0.0556,-0.0270,2.6392,-1.1846,-0.1850,0.3264,-2.5155,-0.2960,908.1656,-52.7162,-13.9324,-6.9662,0.0050,302.2266,-92.3112,83.5664,46.89245830,-114.03129880,1.53135526,956.90686035,
21.225817,1.2014,-0.1118,-0.1224,2.7096,-1.9552,0.4859,0.6357,-0.5086,-0.1025,908.2343,-53.0944,-15.7014,3.5990,0.0050,353.6681,-145.7684,77.1455,46.89245830,-114.03129880,1.53135526,956.90686035,
21.326080,0.7746,0.0014,0.1580,-1.6287,-0.5642,2.7655,0.8189,0.6169,-0.2276,908.1918,-53.5336,-14.8474,2.6718,0.0050,351.5973,-146.0861,80.8627,46.89245830,-114.03129880,1.53135526,956.90686035,
21.426365,0.6672,0.0223,-0.1350,-3.2380,-0.2731,-0.0517,1.5161,-0.2491,-0.2916,908.1088,-53.2408,-16.0918,2.7328,0.0050,335.1920,-138.1108,81.7414,46.89245830,-114.03129880,1.53135526,956.90686035,
21.526763,0.6319,-0.0402,-0.7824,-2.7142,-0.6760,-4.4436,-0.4384,1.2708,-0.2856,908.3894,-52.1916,-18.0438,5.5388,0.0050,353.5840,-161.8589,73.0192,46.89245830,-114.03129880,1.53135526,956.90686035,
21.627030,1.2374,-0.0799,-0.5840,1.8447,-1.5333,-4.2410,0.7641,-1.0982,-0.3470,909.0312,-53.1188,-16.4090,5.2704,0.0050,1.6450,-171.8190,74.8990,46.89245830,-114.03129880,1.53135526,956.90686035,
21.727123,1.1708,0.1383,0.2182,2.0553,1.0089,4.5533,-2.6261,-0.0472,0.3479,908.3295,-52.8260,-15.9454,3.5868,0.0050,4.9421,-164.1365,73.6010,46.89245830,-114.03129880,1.53135526,956.91326904,
21.827597,0.8525,0.0931,0.1594,-0.6036,0.3875,3.7689,-0.8849,0.4690,0.1877,908.2688,-53.5214,-14.5912,1.8300,5.3987,5.8615,-153.7232,76.3368,46.89246940,-114.03130690,1.15213394,956.91326904,
21.927864,0.8602,-0.0376,-0.0464,-1.6485,-0.9759,0.9185,-0.2956,0.2234,0.3017,908.1938,-53.4482,-13.5542,-2.3912,5.3987,358.3230,-142.3117,80.6335,46.89246940,-114.03130690,1.15213394,956.91326904,
22.028298,0.8829,0.1224,-0.3786,-0.3414,0.3897,-1.1816,0.2605,0.0710,-0.0920,908.1569,-54.0826,-13.3468,-1.7446,0.0050,8.0021,-150.7664,76.8340,46.89246940,-114.03130690,1.15213394,956.91326904,
22.128481,1.2124,0.2817,-0.4326,1.9724,1.6464,-4.4993,-0.7807,-0.9471,-0.1525,908.9927,-51.3986,-12.5416,-13.2004,0.0050,329.5927,-111.0142,81.9757,46.89246940,-114.03130690,1.15213394,956.91326904,
22.228700,1.1320,-0.1653,-0.0265,1.6748,-2.5611,1.3304,0.4714,-1.6660,-0.0435,908.1712,-52.7284,-13.6030,-8.8694,0.0050,358.7161,-137.8393,77.2328,46.89246940,-114.03130690,1.15213394,956.91326904,
22.329149,1.1466,-0.1106,0.0365,1.9451,-1.9718,2.6123,0.1558,0.1079,0.3263,908.3210,-53.9728,-14.0788,-2.5132,0.0050,13.0882,-152.5376,73.8697,46.89246940,-114.03130690,1.15213394,956.91326904,
22.429466,0.7803,-0.0158,0.1367,-1.4536,-0.2622,3.0123,1.8993,0.1222,0.4518,908.2586,-53.7776,-11.1630,-4.5506,0.0050,19.5328,-161.9397,81.6441,46.89246940,-114.03130690,1.15213394,956.91326904,
22.529740,0.5833,-0.0353,-0.2519,-3.7297,0.2218,-0.2346,0.6561,-0.4593,-0.3739,907.8927,-53.8752,-10.1748,0.2562,0.0050,28.0819,179.4387,76.6353,46.89246940,-114.03130690,1.15213394,956.91326904,
22.629917,0.9055,-0.0240,-0.3318,-1.2689,-0.6302,-1.0635,0.0167,-0.4750,-0.8125,908.4296,-53.3872,-15.8112,-0.5490,0.0050,3.0925,-153.1066,77.0235,46.89246940,-114.03130690,1.15213394,956.91326904,
22.730843,1.1545,-0.4889,-0.7307,0.9648,-4.9733,-5.0665,1.6875,-0.6550,0.4040,908.6195,-53.7410,-14.1154,3.6478,0.0050,19.8116,179.5612,75.6087,46.89246940,-114.03130690,1.15213394,956.93750000,
22.830915,0.8170,-0.1603,0.2870,-1.5366,-1.3538,4.1773,-4.0946,-0.3343,-0.4496,908.2932,-54.1070,-12.5172,-1.6104,0.0050,24.2502,-170.4073,78.9461,46.89247820,-114.03131460,1.15177834,956.93750000,
22.931442,1.0312,0.2492,0.2259,1.1361,2.1165,3.6437,-0.1699,-0.0036,-0.2308,908.4457,-53.7044,-12.8710,-3.4282,0.0050,15.2577,-150.3848,81.4354,46.89247820,-114.03131460,1.15177834,956.93750000,
23.031744,0.4824,0.0430,0.0083,-4.9711,0.1704,0.8227,-0.5824,0.3578,0.2065,907.9520,-52.6796,-11.4436,-6.0512,0.0050,357.2100,-132.1564,83.0014,46.89247820,-114.03131460,1.15177834,956.93750000,
23.132287,0.9696,0.0670,-0.1631,-0.1973,0.0986,-0.8850,0.0361,-0.6620,-0.1242,908.2366,-53.6190,-12.2732,-6.0634,0.0050,354.0972,-125.9497,83.3584,46.89247820,-114.03131460,1.15177834,956.93750000,
23.232474,1.2127,0.1654,-0.6997,2.3884,0.7312,-9.7074,-1.5892,-0.0912,-0.0560,909.1877,-51.3010,-12.1756,-14.3594,0.0050,278.0043,-48.3467,82.6690,46.89247820,-114.03131460,1.15177834,956.93750000,
23.332555,1.2135,0.1189,0.0019,2.2193,0.6271,0.5161,1.3029,-1.6937,-0.2912,908.2196,-52.8504,-11.6022,-8.8084,0.0050,346.0836,-116.0822,83.3226,46.89247820,-114.03131460,1.15177834,956.93750000,
23.433035,1.3363,-0.1874,0.0485,3.6053,-2.2280,1.5311,-0.1758,0.2969,0.4165,908.2792,-54.0704,-12.7246,-3.2086,0.0050,11.4060,-145.1500,81.7933,46.89247820,-114.03131460,1.15177834,956.90686035,
23.533174,0.6397,0.0069,0.0692,-3.2358,0.2883,1.9071,2.4323,-0.8357,-0.1404,907.9712,-53.4360,-9.0646,-1.4030,0.0050,36.6554,-176.2883,82.6834,46.89248020,-114.03131630,1.09441471,956.90686035,
23.633537,0.4803,0.0339,-0.1293,-4.9678,0.5354,-0.0873,0.8884,0.2691,-0.6659,907.8867,-54.1192,-12.4562,1.8910,0.0050,19.2955,-170.4453,82.6232,46.89248020,-114.03131630,1.09441471,956.90686035,
23.733871,1.2109,-0.2402,-0.3147,2.1133,-2.7018,-1.4005,1.0465,-0.1498,-0.1754,908.6682,-52.7650,-19.1174,5.0874,0.0050,357.5772,-151.6135,78.6133,46.89248020,-114.03131630,1.09441471,956.90686035,
23.834140,1.2726,0.0670,-0.8303,2.8232,0.8071,-6.3879,-0.4951,-0.8887,-0.5468,908.9309,-52.9968,-14.9328,9.6746,0.0050,11.3259,179.9231,76.8228,46.89248020,-114.03131630,1.09441471,956.90686035,
23.934433,0.9528,-0.1494,0.5712,-0.3316,-1.5952,6.3646,-2.6550,0.8453,-0.4408,908.3086,-52.7040,-15.2134,-1.9154,0.0050,356.5907,-142.6068,84.0038,46.89248020,-114.03131630,1.09441471,956.90686035,
24.034805,0.7168,0.1097,0.1442,-2.5001,0.4296,2.0870,0.4820,0.3449,-0.1241,908.1797,-53.2530,-16.3480,-0.8784,0.0050,340.8701,-124.1613,83.0361,46.89248020,-114.03131630,1.09441471,956.90686035,
24.134994,0.7986,0.0632,-0.1413,-2.0884,-0.0633,-0.9030,-0.5517,-0.1997,-0.1699,908.0452,-52.8992,-16.1650,-2.7938,0.0050,327.6803,-112.3566,83.8177,46.89248020,-114.03131630,1.09441471,956.90686035,
24.235294,0.8109,0.1213,-0.6651,-1.3852,0.5438,-5.1570,-0.2528,3.3232,0.2579,908.4008,-52.6552,-16.4334,-4.1846,0.0050,348.9158,-131.7427,81.3441,46.89248020,-114.03131630,1.09441471,956.90686035,
24.335687,1.0790,0.3935,-0.2069,1.3549,3.2289,-2.0084,-0.3647,-0.7987,0.0354,908.6566,-52.6796,-15.4208,-8.3936,0.0050,332.0286,-111.8109,83.5661,46.89248020,-114.03131630,1.09441471,956.90686035,
24.436170,1.3141,-0.0095,-0.1324,3.7004,-0.4109,0.5207,0.6124,-0.7258,-0.1391,908.1666,-52.9236,-15.8478,-0.7686,0.0050,7.2269,-148.6849,78.6144,46.89248020,-114.03131630,1.09441471,956.90686035,
24.536526,1.0366,-0.2477,0.0449,0.9479,-2.7982,2.3884,0.8353,-1.1574,0.8217,908.3089,-54.1070,-12.8588,-0.1342,0.0050,27.5778,-169.2526,78.9751,46.89248020,-114.03131630,1.09441471,956.90686035,
24.636802,0.4334,0.1013,-0.0984,-5.1400,1.6826,1.4952,1.8563,-0.5014,-0.1460,907.8747,-53.8508,-11.6144,6.2708,0.0050,38.2857,170.7983,75.4770,46.89248020,-114.03131630,1.09441471,956.90686035,
24.736869,0.7867,-0.0369,-0.2633,-2.0769,-0.1154,-0.6161,-0.9195,1.2630,-1.4955,908.1697,-53.3872,-13.8714,5.1362,0.0050,23.3697,-178.0776,78.3832,46.89248020,-114.03131630,1.09441471,956.78668213,
24.837189,0.9403,-0.7994,-1.3248,0.7271,-7.5878,-10.6734,3.6728,0.3722,0.8510,909.6331,-52.4966,-16.8238,8.8694,0.0050,13.5962,-176.1408,74.8793,46.89249530,-114.03132340,1.34452021,956.78668213,
24.937382,1.1567,-0.1851,0.0350,1.5541,-1.3711,0.0982,-6.3686,2.9003,0.3447,908.5355,-53.0944,-17.5558,2.0496,0.0050,12.8333,-172.6991,82.6311,46.89249530,-114.03132340,1.34452021,956.78668213,
25.037664,1.0248,0.1815,0.3577,0.6836,1.0653,5.6770,-0.1179,-1.2317,-0.3161,908.1854,-53.4604,-15.2866,-1.4884,0.0050,15.2831,-153.8113,79.2626,46.89249530,-114.03132340,1.34452021,956.78668213,
25.137768,0.5710,0.1166,-0.0773,-3.6390,0.4619,0.0001,0.5282,0.7025,-0.0311,908.0115,-52.7162,-16.2504,-3.3184,0.0050,328.6354,-111.3916,82.8305,46.89249530,-114.03132340,1.34452021,956.78668213,
25.238172,0.8277,-0.0013,-0.2368,-1.7751,-0.7770,-1.7206,-1.0016,-0.6643,0.0002,908.0361,-52.9114,-14.9816,-3.2818,0.0050,335.6179,-115.5373,83.0977,46.89249530,-114.03132340,1.34452021,956.78668213,
25.338418,1.3284,0.2673,-0.5008,2.9483,1.1324,-4.0284,-0.9167,0.4072,-0.0631,909.3405,-52.0574,-14.2130,-10.8092,0.0050,11.4590,-144.4924,76.5631,46.89249530,-114.03132340,1.34452021,956.78668213,
25.438675,1.1899,-0.0819,-0.0059,2.1400,-1.6867,2.3470,0.1696,-1.9373,-0.1022,908.4827,-52.6796,-14.5790,-7.1980,0.0050,21.0390,-150.4886,71.4338,46.89249530,-114.03132340,1.34452021,956.78668213,
25.539286,1.2696,-0.0419,-0.0110,3.5454,-1.3434,3.2544,0.3913,0.2667,0.4523,908.3344,-54.2046,-14.8108,-1.6836,0.0050,28.2449,-158.3347,67.3823,46.89249530,-114.03132340,1.34452021,956.78668213,
25.639262,0.7728,0.0361,0.0538,-1.5296,0.3298,3.5248,2.4498,-0.6548,0.3660,908.2492,-54.4120,-11.7974,-0.5246,0.0050,37.8297,-172.5787,72.1806,46.89249530,-114.03132340,1.34452021,956.78668213,
25.739562,0.4263,-0.0391,-0.1293,-5.0571,0.4076,1.8093,0.4490,-0.0584,-0.3423,907.8309,-54.2900,-11.4436,3.1964,0.0050,38.8542,177.3802,70.9680,46.89249530,-114.03132340,1.34452021,956.78668213,
25.839689,1.0419,-0.0558,-0.2930,0.0672,-0.8591,0.6122,0.6680,-0.2973,-0.7580,908.3397,-52.1428,-16.7140,2.9280,0.0050,22.3491,-165.4563,70.2996,46.89250650,-114.03133310,1.42112935,956.78668213,
25.940210,1.2083,-0.0990,-0.8163,2.5103,-0.2358,-4.8523,0.0009,0.2707,-0.3075,908.7672,-53.1432,-13.9812,7.8934,0.0050,31.3162,171.3373,68.4727,46.89250650,-114.03133310,1.42112935,956.78668213,
26.040302,1.0347,0.0032,0.5514,0.7912,-0.2720,7.7039,-2.6788,-0.8053,-0.6978,908.5247,-53.1188,-13.6518,-4.5140,0.0050,28.3928,-162.3015,76.2657,46.89250650,-114.03133310,1.42112935,956.78668213,
26.140591,0.7410,0.1234,0.0710,-2.0674,0.4401,2.8108,0.4832,0.6726,0.0266,908.0538,-53.4116,-14.6278,-1.1468,0.0050,21.1868,-151.5243,75.7887,46.89250650,-114.03133310,1.42112935,956.78668213,
26.240697,0.7557,-0.0136,-0.0739,-2.2010,-0.9405,0.7178,-0.9995,0.0227,0.0290,907.9809,-53.1432,-13.7738,-5.4778,0.0050,13.7713,-142.3989,78.9771,46.89250650,-114.03133310,1.42112935,956.78668213,
26.341342,0.8572,0.2403,-0.5536,-0.7148,1.2228,-3.2848,0.2124,2.1347,0.1045,908.4444,-53.2408,-14.2008,-3.6844,0.0050,16.6557,-141.5410,77.6605,46.89250650,-114.03133310,1.42112935,956.78668213,
26.441503,1.1780,0.3046,-0.2272,1.9414,2.5807,-2.2947,-0.2040,-0.9249,0.0049,909.2450,-52.2160,-13.8592,-10.9068,0.0050,352.4255,-116.0364,80.9306,46.89250650,-114.03133310,1.42112935,956.78668213,
26.541759,1.2668,-0.0472,-0.1178,3.5003,-1.2727,1.1305,0.8368,-1.1960,-0.1833,908.1330,-53.8142,-14.7742,-1.8910,0.0050,23.3250,-148.4843,74.5305,46.89250650,-114.03133310,1.42112935,956.78668213,
26.641939,1.0065,-0.0760,0.1505,0.8496,-1.4834,3.7272,0.9378,-0.4751,0.5728,908.4371,-54.0460,-13.2248,-0.6710,0.0050,30.7569,-157.4841,75.0450,46.89250650,-114.03133310,1.42112935,956.78668213,
26.742557,0.4658,0.1220,-0.1503,-4.9160,1.2860,0.9519,1.9711,-0.3494,-0.1314,907.9163,-54.3144,-12.0658,4.3554,0.0050,38.5477,-176.8948,76.9886,46.89250650,-114.03133310,1.42112935,956.71734619,
26.842684,0.7309,-0.0583,-0.1821,-2.6396,-0.7034,0.5079,-0.3670,0.5522,-1.3421,907.8782,-53.3628,-13.8470,6.1976,0.0050,25.0627,-167.6297,76.1137,46.89251960,-114.03134320,1.41971946,956.71734619,
26.942918,1.3042,-0.7101,-1.5879,4.3155,-7.1411,-13.0391,3.8771,-0.7716,0.8387,909.7016,-52.7528,-17.4216,7.7958,0.0050,17.5129,-169.4806,75.5465,46.89251960,-114.03134320,1.41971946,956.71734619,
27.043211,1.1189,-0.0410,-0.0729,1.5300,-0.3028,0.5087,-5.6512,2.5814,0.8790,908.2988,-53.2042,-17.7754,10.7604,0.0050,16.5187,-167.2342,75.5169,46.89251960,-114.03134320,1.41971946,956.71734619,
27.143426,1.0795,0.0265,0.3488,1.1995,-0.5488,5.1516,-0.4001,-1.2045,-0.3808,908.3454,-53.4848,-15.1280,-2.6474,0.0050,12.3718,-142.6749,80.6536,46.89251960,-114.03134320,1.41971946,956.71734619,
27.243694,0.6603,0.0843,-0.0567,-3.1088,0.0900,-0.0133,0.0980,0.5804,0.0622,908.0428,-53.7532,-16.4212,-1.8300,0.0050,339.0638,-112.0890,83.0179,46.89251960,-114.03134320,1.41971946,956.71734619,
27.344231,0.8598,0.0649,-0.2374,-1.3656,-0.2144,-1.8576,-0.9011,-0.9271,-0.1284,908.1376,-53.0822,-15.7502,-3.9406,0.0050,336.5551,-107.2608,83.3173,46.89251960,-114.03134320,1.41971946,956.71734619,
27.444710,1.2671,0.2405,-0.6257,2.2117,0.8433,-7.1050,-0.9750,0.1962,-0.1484,908.7877,-51.8500,-15.1158,-11.3704,0.0050,341.4504,-110.3104,80.2493,46.89251960,-114.03134320,1.41971946,956.71734619,
27.544516,1.2829,0.0119,-0.0389,3.5207,-0.9088,0.6764,0.2452,-1.7097,-0.3211,908.4755,-52.6308,-15.0426,-8.0642,0.0050,1.3310,-125.9767,77.0003,46.89251960,-114.03134320,1.41971946,956.71734619,
27.644599,1.3355,-0.1222,-0.1116,3.5317,-2.3692,1.2253,-0.0434,-0.0534,0.3217,908.1204,-53.4482,-15.0914,-1.3786,0.0050,21.1375,-147.2287,72.5741,46.89251960,-114.03134320,1.41971946,956.71734619,
27.744841,0.7243,-0.0097,0.1664,-2.0232,-0.6164,3.6046,1.4926,-0.0969,0.2637,908.0960,-53.6556,-11.7364,-1.4884,0.0050,33.5089,-159.8211,77.9268,46.89251960,-114.03134320,1.41971946,956.70458984,
27.846264,0.5111,0.0989,-0.2061,-4.7343,1.1971,0.0498,1.5432,-0.2110,0.1287,907.9191,-53.9362,-11.8340,-0.4270,0.0050,37.3893,-175.5834,79.5886,46.89253170,-114.03135450,1.31672251,956.70458984,
27.945919,0.9194,-0.0419,-0.1218,-0.4553,-0.6499,-0.2060,-0.3466,-0.9448,-1.3555,908.5041,-53.1310,-16.3114,0.1830,0.0050,13.8654,-152.1126,78.4660,46.89253170,-114.03135450,1.31672251,956.70458984,
28.046299,0.6430,-0.6424,-0.8798,-4.6003,-5.9721,-8.4102,1.7642,2.0628,0.5759,909.3588,-53.6556,-13.7982,5.7828,0.0050,28.9951,176.9006,76.5719,46.89253170,-114.03135450,1.31672251,956.70458984,
28.146609,1.2006,-0.1679,0.4976,1.6632,-1.7758,4.3851,-6.4129,0.9413,-0.4328,908.4684,-53.6800,-13.1028,-6.1976,0.0050,13.3017,-147.6378,84.7012,46.89253170,-114.03135450,1.31672251,956.70458984,
28.246868,0.8522,0.2759,0.3273,-0.4133,1.8354,5.5762,1.4512,0.1056,-0.1825,908.4004,-53.6068,-14.1398,-3.2574,0.0050,7.3608,-129.1145,78.7650,46.89253170,-114.03135450,1.31672251,956.70458984,
28.347221,0.5601,0.0696,-0.1563,-4.4628,-0.4045,-1.2223,-0.5161,0.2103,-0.0247,908.0409,-52.6064,-15.1036,-6.5880,0.0050,332.7430,-100.3563,81.1466,46.89253170,-114.03135450,1.31672251,956.70458984,
28.447487,0.9553,0.0768,-0.3239,-0.1826,-0.2391,-1.4985,-1.1641,-0.8388,0.2954,908.1722,-53.1920,-13.2248,-5.4656,0.0050,20.6863,-141.3906,79.1854,46.89253170,-114.03135450,1.31672251,956.70458984,
28.548526,1.3170,0.4937,-0.3817,3.7158,3.7934,-3.8845,-0.0719,-0.9426,-0.2383,909.3831,-51.8744,-11.2240,-13.5908,0.0050,352.2073,-107.1518,83.3236,46.89253170,-114.03135450,1.31672251,956.70458984,
28.649736,1.2321,0.0406,0.0077,2.2260,-1.2058,2.1544,1.4377,-1.6867,-0.1952,908.3188,-53.2896,-12.3952,-4.2700,0.0050,30.1283,-148.2562,76.4925,46.89253170,-114.03135450,1.31672251,956.70458984,
28.750223,1.1483,-0.0573,0.0566,2.5668,-1.0811,2.6700,0.5857,0.1916,0.3865,908.3873,-53.9972,-14.7864,-1.1468,0.0050,33.6604,-157.8407,73.9764,46.89253170,-114.03135450,1.31672251,956.71734619,
28.850472,0.5166,0.0823,-0.0831,-3.7651,0.7755,2.0182,2.5169,-0.9603,-0.1708,907.9531,-54.4120,-12.0658,4.7702,0.0050,42.3531,-177.5802,74.6078,46.89254000,-114.03136170,1.35843670,956.71734619,
28.951550,0.5528,-0.0432,-0.1380,-4.1232,0.2294,1.5496,0.3467,0.6504,-0.9609,907.9564,-52.8992,-13.1394,7.4908,0.0050,32.5374,-176.8542,73.2144,46.89254000,-114.03136170,1.35843670,956.71734619,
29.051351,2.0251,-0.6409,-0.9980,9.9693,-6.5535,-6.8694,3.9279,-0.8638,1.0941,909.7255,-52.5942,-19.9714,7.0760,0.0050,14.0211,-162.9841,75.7491,46.89254000,-114.03136170,1.35843670,956.71734619,
29.151760,1.2308,0.1863,-0.3632,4.3042,2.4001,-2.5042,-3.6376,1.2297,-0.0808,908.3376,-51.4718,-18.2878,12.6392,0.0050,14.8310,-172.6585,71.5744,46.89254000,-114.03136170,1.35843670,956.71734619,
29.252017,1.1253,-0.1490,0.4709,1.6329,-3.2716,6.5933,-0.7477,-1.9656,-0.5103,908.6116,-53.2164,-16.2138,-3.9528,0.0050,5.6239,-139.8110,82.7666,46.89254000,-114.03136170,1.35843670,956.71734619,
29.353806,0.5702,0.0782,0.0261,-3.9802,0.0030,0.8328,-0.0048,0.5817,0.0981,908.1132,-51.7524,-17.5070,-2.6230,0.0050,342.8859,-117.5799,82.6808,46.89254000,-114.03136170,1.35843670,956.71734619,
29.453505,0.7898,0.1255,-0.2486,-1.9559,0.4653,-1.7575,-0.9533,-1.1633,0.0549,908.0828,-53.1188,-16.7262,-2.2692,0.0050,347.2418,-120.1344,82.7720,46.89254000,-114.03136170,1.35843670,956.71734619,
29.553722,1.3479,0.2521,-0.6131,3.4796,1.3231,-5.9202,-0.8134,0.5650,0.0969,909.1096,-51.7280,-14.7376,-11.4680,0.0050,333.6271,-103.2621,81.3100,46.89254000,-114.03136170,1.35843670,956.71734619,
29.654099,1.1675,0.0362,0.0032,2.0136,-0.6954,0.7825,0.6115,-2.0086,-0.2265,908.4288,-52.2648,-14.9328,-9.0280,0.0050,351.1190,-119.4467,79.7148,46.89254000,-114.03136170,1.35843670,956.71734619,
29.754517,1.3284,-0.0331,-0.1523,3.7795,-1.3222,0.9282,0.4883,-0.3946,0.0309,908.2410,-53.5336,-16.7994,1.2322,0.0050,16.4754,-150.3193,73.0724,46.89254000,-114.03136170,1.35843670,956.70458984,
29.854644,0.6368,-0.0209,-0.1071,-2.3674,-0.3335,1.8624,1.9563,-1.1309,0.2354,907.8997,-53.9362,-12.2854,5.2948,0.0050,37.6824,-178.2814,72.4348,46.89254980,-114.03137120,1.26607311,956.70458984,
29.954839,0.4534,0.1103,-0.1066,-4.6854,1.9052,2.5779,0.0266,0.1300,-0.2348,907.6694,-53.5336,-12.4196,10.6018,0.0050,36.5241,176.2212,67.7576,46.89254980,-114.03137120,1.26607311,956.70458984,
30.055109,1.2821,-0.1195,-0.4092,2.2326,-0.9748,-0.0798,2.0115,1.0024,-0.5752,909.0698,-52.5454,-19.3248,6.9906,0.0050,16.3476,-163.8800,72.4949,46.89254980,-114.03137120,1.26607311,956.70458984,
30.155692,1.2099,-0.1131,-0.7136,1.3397,-0.7934,-4.4224,-0.9323,-0.4021,-0.6898,908.3706,-52.7040,-11.9438,11.8828,0.0050,28.0384,168.2702,70.8559,46.89254980,-114.03137120,1.26607311,956.70458984,
30.255861,1.1779,-0.2080,0.5627,1.3853,-2.5660,7.2481,-3.2555,-0.9535,-0.2948,908.4740,-53.5336,-14.5790,-2.6352,4.9187,20.3834,-155.7407,80.5660,46.89254980,-114.03137120,1.26607311,956.70458984,
30.356209,0.6564,0.1631,0.0692,-2.4814,0.7330,2.5110,0.9656,0.9441,-0.1922,908.0697,-52.9480,-15.4574,1.0492,4.9187,6.5773,-138.4721,78.3480,46.89254980,-114.03137120,1.26607311,956.70458984,
30.456466,0.6395,0.0783,-0.1296,-4.0667,-0.2054,-0.5429,-1.1301,-0.1447,0.2164,908.0089,-53.0212,-15.1768,-3.1842,4.9187,348.3671,-120.7368,81.5818,46.89254980,-114.03137120,1.26607311,956.70458984,
30.556976,0.9412,0.2204,-0.7131,0.5702,1.3676,-5.7069,-0.6890,3.6416,0.3308,908.5391,-53.5458,-14.2496,-4.5384,0.0050,345.3951,-112.3058,82.4872,46.89254980,-114.03137120,1.26607311,956.70458984,
30.657101,0.9680,0.2456,-0.2232,-0.2077,2.3344,-3.1396,-0.0017,-1.4646,-0.0225,908.6022,-52.1916,-13.8348,-9.6258,0.0050,318.3106,-83.8787,82.9970,46.89254980,-114.03137120,1.26607311,956.70458984,
30.758471,1.2587,0.0676,-0.1551,2.6689,-0.2612,0.1805,1.3359,-0.6397,-0.5484,908.2496,-52.6796,-15.4452,-0.0122,0.0050,7.3485,-137.6879,77.8377,46.89254980,-114.03137120,1.26607311,956.87335205,
30.857844,0.9945,-0.1404,-0.1230,0.9256,-2.2489,0.9163,1.8090,-1.2640,0.7596,908.2226,-53.8996,-14.6156,2.4644,0.0050,19.0834,-156.5101,77.3051,46.89255840,-114.03138020,1.32242894,956.87335205,
30.958272,0.3624,0.1225,-0.0632,-5.6562,1.3190,2.3556,0.5945,-0.3906,-0.2068,907.7405,-53.6434,-12.0902,8.9060,0.0050,31.3860,-176.4841,71.9923,46.89255840,-114.03138020,1.32242894,956.87335205,
31.058657,0.8103,0.0387,-0.1405,-1.9935,-0.0635,1.2093,0.0664,0.8873,-1.5401,908.2737,-52.9236,-15.5306,6.5758,0.0050,12.8069,-158.8442,75.1902,46.89255840,-114.03138020,1.32242894,956.87335205,
31.158617,0.3908,-0.4896,-1.3656,-5.3630,-4.7695,-11.5539,1.8759,0.9550,0.1828,909.5592,-51.9598,-14.3472,10.8458,0.0050,13.2796,-176.4942,74.9064,46.89255840,-114.03138020,1.32242894,956.87335205,
31.259162,1.0661,-0.1793,0.4543,0.6952,-2.0637,5.3824,-6.1963,2.0117,0.5798,908.3539,-53.3628,-15.6160,4.4530,0.0050,17.1064,-163.3750,80.9009,46.89255840,-114.03138020,1.32242894,956.87335205,
31.359559,0.9148,0.1578,0.1842,-0.4467,0.9168,3.1829,-0.1056,0.1742,-0.1743,908.2491,-53.2286,-15.6526,2.0008,5.3488,12.0319,-145.5271,80.1950,46.89255840,-114.03138020,1.32242894,956.87335205,
31.459580,0.4199,-0.0051,-0.0983,-5.5927,-0.5865,-0.4920,-0.8172,0.3159,0.2388,908.0053,-52.9602,-14.8718,-2.0130,5.3488,343.1609,-118.5246,84.1568,46.89255840,-114.03138020,1.32242894,956.87335205,
31.559900,0.9879,0.2068,-0.3706,0.0910,1.2310,-2.3213,-1.2038,0.5099,0.2549,908.2304,-53.6068,-13.3834,-1.7446,0.0050,10.3258,-139.6278,80.2864,46.89255840,-114.03138020,1.32242894,956.87335205,
31.660375,1.3175,0.4080,-0.5041,3.3881,3.0388,-4.9898,-0.0026,-0.7652,-0.2030,909.2998,-52.0574,-12.7612,-11.9316,0.0050,321.6935,-88.1474,82.4626,46.89255840,-114.03138020,1.32242894,956.87335205,
31.761252,1.3571,0.0408,-0.0000,3.7961,-1.0023,1.5648,1.1797,-1.9103,-0.1489,908.2869,-53.3628,-13.1394,-4.8190,0.0050,9.6928,-135.7184,78.5304,46.89255840,-114.03138020,1.32242894,956.78668213,
31.861293,1.1544,-0.1865,0.0401,1.8869,-2.6482,2.5681,1.0079,0.4999,0.6661,908.3963,-53.9728,-15.0304,0.4392,0.0050,19.5359,-150.6153,74.8234,46.89257110,-114.03138530,1.36435580,956.78668213,
31.961605,0.4939,0.0570,-0.1024,-4.4210,0.7202,1.5277,1.9746,-0.6782,0.1619,908.0630,-54.0704,-11.3948,4.6848,0.0050,34.1779,-176.2645,75.1319,46.89257110,-114.03138530,1.36435580,956.78668213,
32.061786,0.4475,-0.0421,-0.1084,-5.0739,-0.0039,2.0438,-0.3729,0.6877,-0.6745,907.7628,-53.9240,-10.6750,8.1008,0.0050,32.6038,-179.8309,71.5962,46.89257110,-114.03138530,1.36435580,956.78668213,
32.162387,2.3344,-0.4963,-1.3234,11.4783,-4.1770,-8.2961,5.1439,-3.5366,1.7505,908.8878,-52.6674,-18.1780,5.8560,0.0050,13.7759,-163.1257,73.7776,46.89257110,-114.03138530,1.36435580,956.78668213,
32.262326,1.2883,0.0159,-0.5504,4.5608,0.2412,-3.6203,-3.6301,0.9930,-1.1017,908.4703,-53.3994,-12.6270,8.5766,0.0050,21.1663,178.2515,75.3909,46.89257110,-114.03138530,1.36435580,956.78668213,
32.362431,1.3366,0.1981,0.2833,2.6374,0.9871,4.5493,-1.7427,-0.6090,0.1291,908.1841,-53.5580,-14.9572,1.7080,3.5987,16.4990,-152.6557,78.9552,46.89257110,-114.03138530,1.36435580,956.78668213,
32.462651,0.5640,0.0374,-0.0192,-3.5403,-0.1191,1.3433,-0.3150,0.7342,0.1836,907.9952,-53.5702,-13.8714,1.5250,3.5987,13.0044,-146.0975,79.7816,46.89257110,-114.03138530,1.36435580,956.78668213,
32.563002,0.8407,0.0492,-0.1579,-1.4670,-0.0452,-0.5086,-1.0672,-0.1265,0.0805,908.0007,-53.7776,-12.2854,-0.6466,0.0050,13.6183,-142.4237,82.3492,46.89257110,-114.03138530,1.36435580,956.78668213,
32.663640,0.8429,0.1921,-0.7421,-1.4314,1.1862,-6.6258,-0.1168,3.1056,0.3416,909.0096,-53.1432,-11.1264,-6.2464,0.0050,354.2845,-121.1165,83.0933,46.89257110,-114.03138530,1.36435580,956.78668213,
32.763290,1.0837,0.2674,-0.1867,1.0350,2.1332,-1.4722,0.3065,-0.9402,-0.0167,908.9260,-52.9968,-10.9800,-9.1134,0.0050,349.0395,-114.0342,83.9543,46.89257110,-114.03138530,1.36435580,956.78668213,
32.863782,1.2998,0.0081,-0.1626,2.8342,-0.5149,0.3646,0.8717,-0.7384,-0.3418,908.2996,-54.6072,-11.8218,-0.5246,0.0050,23.4586,-153.1160,77.7435,46.89257110,-114.03138530,1.36435580,956.79534912,
32.963958,0.8973,-0.1111,-0.0830,-0.4890,-1.0428,1.4268,2.2954,-1.3283,0.6531,908.3637,-54.1924,-10.1504,3.0256,0.0050,39.2277,-175.0564,76.9932,46.89258340,-114.03139030,1.03754890,956.79534912,
33.064483,0.3965,0.1180,-0.1344,-5.3904,1.7990,1.7308,1.1682,-0.5779,-0.0410,907.7131,-53.9118,-9.6502,9.2964,0.0050,39.1294,173.7739,71.7054,46.89258340,-114.03139030,1.03754890,956.79534912,
33.164674,0.9842,-0.1209,-0.3067,0.1256,-1.2260,-0.3873,0.2716,0.0570,-1.6031,908.1622,-53.9728,-13.3468,7.2834,0.0050,22.5964,-171.1360,75.0772,46.89258340,-114.03139030,1.03754890,956.79534912,
33.264946,0.4691,-0.3001,-1.1262,-5.3874,-2.5336,-9.4042,1.1425,-0.1990,0.2513,908.5447,-53.8020,-11.6510,8.9182,0.0050,26.9309,169.6371,74.9586,46.89258340,-114.03139030,1.03754890,956.79534912,
33.364902,1.0523,-0.1484,0.5125,0.4928,-1.3853,5.4321,-5.5214,2.8515,0.5352,908.2122,-53.5702,-13.8592,1.7446,0.0050,28.2805,-174.3584,83.9322,46.89258340,-114.03139030,1.03754890,956.79534912,
33.465409,0.9507,0.2178,0.2092,-0.2021,1.8631,2.8367,0.2189,-0.3524,-0.6302,908.2453,-53.3994,-13.3468,-1.0004,0.0050,8.4863,-146.6592,84.1886,46.89258340,-114.03139030,1.03754890,956.79534912,
33.565638,0.5437,0.0012,-0.1373,-4.3761,-0.5360,-1.0372,-0.2904,0.4039,0.0830,908.0261,-53.2286,-14.6156,-1.6836,0.0050,327.0128,-109.3930,84.5286,46.89258340,-114.03139030,1.03754890,956.79534912,
33.665861,0.9024,0.0156,-0.4442,-0.8380,-0.2940,-3.2762,-1.4674,1.0946,0.2604,908.3466,-53.4238,-14.2984,-3.0500,0.0050,6.7382,-144.3253,82.6066,46.89258340,-114.03139030,1.03754890,956.79534912,
33.766489,1.3578,0.6183,-0.4224,3.9324,5.2326,-2.8180,0.6539,-0.7942,-0.6150,909.4432,-52.5088,-12.4440,-11.8096,0.0050,7.1069,-139.6565,80.3506,46.89258340,-114.03139030,1.03754890,956.71386719,
33.866625,1.3145,0.0367,-0.0562,3.6900,-0.5827,2.3274,0.9864,-1.2319,-0.2918,908.1724,-53.5580,-14.7742,-3.2696,0.0050,22.6292,-157.1932,71.7132,46.89259660,-114.03139340,1.09324944,956.71386719,
33.966915,1.1798,-0.2791,0.0553,2.4791,-3.2026,3.6247,0.5969,0.6166,0.9203,908.3996,-53.6434,-14.2740,-0.3904,0.0050,27.9291,-164.8452,70.8047,46.89259660,-114.03139340,1.09324944,956.71386719,
34.067219,0.4180,0.0503,-0.0328,-5.0385,1.0276,2.6076,1.9280,-0.2392,-0.2529,907.9169,-54.2778,-12.0170,1.6958,0.0050,37.8041,177.4495,72.6738,46.89259660,-114.03139340,1.09324944,956.71386719,
34.167538,0.5515,0.0115,-0.1166,-4.4725,0.5299,1.4973,-0.1035,0.1859,-0.9695,907.8759,-52.9846,-14.6522,0.4392,0.0050,27.7899,-177.3341,74.7208,46.89259660,-114.03139340,1.09324944,956.71386719,
34.268026,2.0518,-0.8262,-1.5176,11.7756,-7.2973,-10.8752,4.9126,0.3921,0.9918,909.7958,-52.7406,-16.8970,10.8824,0.0050,25.7632,175.6532,67.3450,46.89259660,-114.03139340,1.09324944,956.71386719,
34.368097,0.8804,-0.0593,-0.1613,-0.5560,0.0499,0.9449,-6.3669,2.1437,0.3009,908.3935,-53.3384,-16.2016,7.6128,0.0050,24.2399,176.5511,72.7308,46.89259660,-114.03139340,1.09324944,956.71386719,
34.468200,1.2945,0.1525,0.3314,4.0937,1.0378,6.0038,-0.7943,-1.2807,-0.3808,908.3100,-53.2530,-14.3228,0.1342,0.0050,31.3838,-165.0294,74.1425,46.89259660,-114.03139340,1.09324944,956.71386719,
34.569030,0.5121,0.0465,-0.0340,-4.1270,0.1267,1.3378,0.3278,0.7216,-0.0953,908.0775,-53.1554,-14.8962,-2.0008,0.0050,12.9354,-148.8736,80.4545,46.89259660,-114.03139340,1.09324944,956.71386719,
34.669098,0.8674,0.0445,-0.2042,-1.3817,-0.0765,-0.3267,-1.0592,-0.8281,0.0210,908.1474,-53.7044,-14.3350,-2.9402,0.0050,17.8865,-149.7650,79.9206,46.89259660,-114.03139340,1.09324944,956.71386719,
34.769527,1.3284,0.3063,-0.7542,2.6478,2.0504,-9.2582,-1.4318,1.2479,0.0809,908.9067,-52.3136,-12.5904,-11.1874,0.0050,337.5555,-104.4787,85.3247,46.89259660,-114.03139340,1.09324944,956.83868408,
34.869749,1.2736,-0.1227,0.0117,2.5896,-1.1811,1.2202,1.0552,-2.2735,-0.3026,908.3282,-53.4482,-12.5416,-6.3928,0.0050,20.7291,-146.3232,80.1232,46.89260730,-114.03140070,1.14438498,956.83868408,
34.969884,1.2588,-0.0364,-0.0927,2.8350,-0.8585,1.5645,0.7330,-0.0677,-0.0025,908.2381,-54.3632,-15.2378,1.2810,0.0050,27.7397,-159.5033,73.8162,46.89260730,-114.03140070,1.14438498,956.83868408,
35.070492,0.6788,0.0160,-0.1092,-1.5658,0.0891,1.9871,2.2150,-1.1204,-0.0638,908.0935,-54.2656,-13.1150,6.4416,0.0050,35.6040,-175.6811,72.0440,46.89260730,-114.03140070,1.14438498,956.83868408,
35.170709,0.3288,-0.0294,0.0020,-6.0943,0.0928,3.3977,0.0986,0.5565,-0.0497,907.8189,-53.1554,-13.1394,8.8694,0.0050,33.0941,-179.6359,69.6012,46.89260730,-114.03140070,1.14438498,956.83868408,
35.270794,1.1129,-0.2980,-0.1843,1.5619,-0.9632,-0.7281,0.2915,1.9129,-0.3402,908.7863,-53.3994,-16.3358,5.2826,0.0050,20.1120,-166.1944,75.8418,46.89260730,-114.03140070,1.14438498,956.83868408,
35.371268,1.3709,0.1211,-0.6539,4.2436,1.7556,-3.4974,-1.8545,0.0849,0.1590,908.7009,-53.2530,-12.0536,13.4688,0.0050,30.2481,168.2750,70.3730,46.89260730,-114.03140070,1.14438498,956.83868408,
35.471295,1.2791,-0.0382,0.2839,4.3478,0.6813,5.4044,-2.0772,-0.0742,0.5014,908.0883,-54.4486,-7.6128,3.6356,5.5787,58.0956,162.3705,75.1105,46.89260730,-114.03140070,1.14438498,956.83868408,
35.571503,0.4103,-0.2691,0.0822,-5.0456,-1.9168,1.8391,-1.2278,2.9381,-0.2264,907.7582,-54.5950,-8.5888,0.9516,5.5787,55.2576,169.6434,82.0430,46.89260730,-114.03140070,1.14438498,956.83868408,
35.672072,0.8765,-0.0377,-0.2143,-1.3447,0.8021,-1.5858,0.7257,-1.8085,0.8392,907.9601,-52.8870,-4.9288,-8.6132,5.5787,137.5607,89.3782,84.9232,46.89260730,-114.03140070,1.14438498,956.83868408,
35.772087,0.6698,-0.0138,-0.8686,-1.5326,1.0394,-5.1982,-1.3115,-2.1367,0.3265,908.3609,-54.3144,-6.2342,13.2248,37.5637,54.2977,172.2472,63.7225,46.89260730,-114.03140070,1.14438498,956.89593506,
35.872406,1.3137,-0.2133,-0.4994,2.9805,-1.0214,-1.2520,-0.5827,0.5114,-1.0187,907.8588,-54.8756,-3.7820,5.4534,37.5637,61.5136,172.3060,65.0840,46.89261740,-114.03140830,1.38498914,956.89593506,
35.972568,1.5133,0.0879,0.0308,5.7193,0.8081,3.3439,2.1302,1.9061,0.3063,908.0334,-54.7902,-10.7360,-0.0610,37.5637,47.0252,178.4435,74.0977,46.89261740,-114.03140830,1.38498914,956.89593506,
36.072840,0.9478,-0.1872,-0.1697,-0.7709,-1.3608,0.7421,-0.1402,-2.5213,0.3586,907.9571,-54.4120,-9.9430,1.0126,37.5637,44.7243,179.1688,72.6821,46.89261740,-114.03140830,1.38498914,956.89593506,
36.172986,0.3302,-0.0340,-0.2764,-5.8513,0.5430,0.3365,0.9001,0.4351,-0.1301,907.8536,-53.7044,-8.3204,5.4168,37.5637,48.7349,169.7771,72.9293,46.89261740,-114.03140830,1.38498914,956.89593506,
36.273006,0.9244,-0.0429,-0.2616,-0.4697,0.2481,0.0134,0.5699,0.0139,-0.5503,908.0698,-53.7898,-11.3826,3.9406,37.5637,42.7977,174.1785,75.2451,46.89261740,-114.03140830,1.38498914,956.89593506,
36.373366,1.2092,-0.3437,-0.4765,2.3340,-3.0388,-2.0860,-0.7959,-0.3123,0.1710,908.4410,-53.4726,-13.5298,4.6238,37.5637,35.3794,-179.5741,74.6519,46.89261740,-114.03140830,1.38498914,956.89593506,
36.473683,1.0535,0.0366,-0.4600,1.2143,0.8484,-1.8971,1.5780,0.1075,-0.2094,908.5953,-53.9850,-12.7490,4.7458,92.2312,39.4514,175.5661,74.8292,46.89261740,-114.03140830,1.38498914,956.89593506,
36.574578,0.8909,0.1914,-0.0018,-0.6646,2.0719,2.6822,-1.2104,1.4163,-0.0569,908.5949,-53.5336,-14.3472,5.0142,67.1012,31.0497,-176.7220,72.6183,46.89261740,-114.03140830,1.38498914,956.89593506,
36.674441,0.6838,-0.0592,-0.1020,-2.9822,-0.9496,-0.0154,-0.3463,-0.3618,-0.1392,908.7244,-52.6796,-13.3956,-3.1354,44.1162,355.7654,-136.0384,83.2013,46.89261740,-114.03140830,1.38498914,956.89593506,
36.774776,0.9537,-0.0573,-0.1480,-0.4050,-1.1104,-0.7417,0.2688,0.8479,-0.0196,908.7841,-53.2286,-14.1886,-3.2574,44.1162,352.4848,-132.4363,83.7730,46.89261740,-114.03140830,1.38498914,956.87335205,
36.874607,1.1469,0.0302,-0.4435,1.0974,-0.5181,-3.6794,0.0020,-0.3334,-0.1693,908.7528,-52.9724,-15.4696,-4.5750,44.1162,341.3947,-123.4397,83.1989,46.89262730,-114.03141710,1.27092052,956.87335205,
36.975157,1.2864,-0.0229,-0.1584,3.4917,-0.9251,-0.3940,0.0160,-0.7923,0.4662,909.2159,-53.3140,-16.5676,-2.6962,44.1162,351.1191,-133.0952,81.1580,46.89262730,-114.03141710,1.27092052,956.87335205,
37.075358,0.9438,-0.0962,-0.0602,-0.1878,-1.0701,1.1735,0.6109,-0.0179,0.3563,908.3484,-53.5092,-14.6644,2.6718,44.1162,25.0964,-168.4935,79.0831,46.89262730,-114.03141710,1.27092052,956.87335205,
37.175651,0.7463,0.1695,0.0541,-2.2164,2.0284,2.0371,1.7395,0.0158,-0.0851,908.4506,-54.0216,-12.6148,2.7328,44.1162,34.5065,175.9422,81.0367,46.89262730,-114.03141710,1.27092052,956.87335205,
37.276630,0.6155,-0.0711,-0.2307,-3.4988,0.1186,-0.5815,0.5238,-0.1653,0.3258,908.2206,-53.7532,-12.3586,4.8678,44.1162,35.8928,167.2032,79.9092,46.89262730,-114.03141710,1.27092052,956.87335205,
37.376316,1.1351,-0.2996,-0.3239,1.4748,-1.5994,-1.8967,0.0903,0.7469,0.2228,908.0107,-54.3266,-10.2724,2.0618,47.5762,61.0241,141.4714,80.1501,46.89262730,-114.03141710,1.27092052,956.87335205,
37.476657,1.4331,-0.3056,-0.2655,3.6592,-1.6879,-1.3321,0.3778,-0.0027,-0.1367,907.7579,-54.7048,-11.6754,2.8792,47.5762,58.9313,141.7061,80.2173,46.89262730,-114.03141710,1.27092052,956.87335205,
37.576960,1.0505,-0.1458,0.0627,0.4857,-0.2311,0.9906,-0.7476,1.5942,-0.4772,907.8047,-53.9606,-12.3708,0.3050,47.5762,63.6969,136.9295,83.8846,46.89262730,-114.03141710,1.27092052,956.87335205,
37.676931,0.6850,-0.1004,0.1180,-1.9201,-0.1099,-0.9557,-0.6840,2.2625,0.4250,908.0902,-51.6548,-12.1024,-13.2980,47.5762,183.7737,20.4955,78.3478,46.89262730,-114.03141710,1.27092052,956.87335205,
37.777046,0.9461,-0.1985,0.2007,0.0146,0.0653,-0.3284,-0.2938,-0.5016,0.5213,907.8367,-50.8008,-6.5026,-16.7506,47.5762,170.1867,36.3714,73.3951,46.89262730,-114.03141710,1.27092052,956.87335205,
37.877389,0.9473,-0.2717,0.0081,-0.0386,0.3272,-1.0736,0.0274,-0.4098,1.1736,907.8164,-52.8626,-2.2570,-12.9930,12.5487,146.6675,59.2143,72.7030,46.89263570,-114.03142540,1.01233006,956.87335205,
37.977722,1.1447,-0.6565,0.0004,1.6997,-2.2812,0.9296,-0.7170,-0.4908,1.0904,907.8345,-53.0822,3.5380,-9.6380,61.7150,122.5848,85.0410,69.0185,46.89263570,-114.03142540,1.01233006,956.87335205,
38.078135,1.2152,-0.6366,0.1795,3.4352,-1.8523,1.7319,-1.2278,1.0944,0.0528,907.8728,-52.1306,9.6502,-10.9556,61.7150,127.6792,87.9837,65.2768,46.89263570,-114.03142540,1.01233006,956.87335205,
38.178434,0.5863,-0.5336,0.1269,-4.1051,-1.3078,0.1718,-0.8518,-0.0366,0.6751,907.9158,-50.8984,10.4554,-14.2252,61.7150,140.0968,82.9341,65.1631,46.89263570,-114.03142540,1.01233006,956.87335205,
38.279324,1.0161,-0.3877,-0.1982,-0.1149,0.3320,-2.1594,-0.9731,2.2824,-1.1339,907.9803,-48.9342,12.2244,-18.8612,61.7150,152.2991,76.7173,64.5551,46.89263570,-114.03142540,1.01233006,956.87335205,
38.379038,0.9691,-0.1025,0.0404,0.3990,0.6566,-2.4720,-2.4536,3.5465,-4.6622,908.0037,-43.1392,4.0382,-29.9754,315.7912,216.4826,29.0639,71.0698,46.89263570,-114.03142540,1.01233006,956.87335205,
38.479782,0.3929,0.2749,0.6855,-4.8342,1.2627,1.2997,-1.9071,0.8062,-2.2849,908.0085,-33.3548,-2.5376,-40.9676,315.7912,280.7426,-14.5885,57.8508,46.89263570,-114.03142540,1.01233006,956.87335205,
38.579668,0.7546,0.2660,0.8330,0.4892,0.2642,1.8665,-0.5426,1.2701,-1.8124,908.0134,-27.4988,-1.6958,-43.7492,315.7912,300.9784,-22.2983,46.2341,46.89263570,-114.03142540,1.01233006,956.87335205,
38.680061,0.6501,0.2032,0.7520,0.5273,-0.7289,0.3709,-0.3174,0.9267,-0.5255,908.0444,-23.6314,-3.3306,-45.3230,2314.9800,307.4414,-21.8805,37.9465,46.89263570,-114.03142540,1.01233006,956.87335205,
38.780008,0.2946,0.0637,0.8693,-2.1118,-1.6285,0.4369,-1.2708,1.0181,-0.1070,908.0832,-18.8246,-0.3050,-47.6044,2314.9800,310.7537,-17.3317,31.4952,46.89263570,-114.03142540,1.01233006,957.32299805,
38.880886,0.3977,-0.0249,0.8838,0.1685,-1.2964,-0.5183,-1.1224,1.2438,-0.8280,908.1232,-10.9678,5.8926,-49.3856,2314.9800,311.2992,-10.8974,24.1583,46.89264370,-114.03143380,1.19798684,957.32299805,
38.980868,0.4665,0.0580,0.9554,1.8105,-0.9038,0.2164,0.9734,0.7154,-0.9291,908.1476,-6.4416,4.9044,-49.6662,2314.9800,314.9711,-10.5971,17.6781,46.89264370,-114.03143380,1.19798684,957.32299805,
39.080934,0.4353,0.2428,1.1894,2.3644,0.1912,2.1954,0.1784,1.1025,-1.0797,908.1890,-0.4026,2.7694,-50.8374,2314.9800,320.1012,-13.8781,10.7431,46.89264370,-114.03143380,1.19798684,957.32299805,
39.181231,0.3722,0.3104,0.9732,2.4652,-0.1098,0.4858,1.3452,0.2879,-1.1098,908.2215,0.8540,-1.7568,-50.8740,2314.9800,326.7832,-19.9814,7.4061,46.89264370,-114.03143380,1.19798684,957.32299805,
39.281487,0.0979,0.3509,0.5303,0.0809,-1.0675,-3.4182,1.0233,0.1334,-0.9784,908.2209,1.8178,-9.2354,-49.8248,6750.9961,333.2487,-28.4072,5.6540,46.89264370,-114.03143380,1.19798684,957.32299805,
39.381608,0.0411,0.4541,0.5159,0.3015,-0.6510,-3.2600,0.7212,0.3131,-0.1832,908.2639,5.0996,-12.5416,-49.6296,6206.5498,335.0080,-32.2399,1.0450,46.89264370,-114.03143380,1.19798684,957.32299805,
39.481794,0.0386,0.7126,0.7013,0.2017,1.0460,-0.8448,0.2563,0.2738,-0.0685,908.2605,5.6242,-15.7624,-48.9830,6206.5498,335.6820,-38.9509,2.0123,46.89264370,-114.03143380,1.19798684,957.32299805,
39.582279,0.0940,0.5848,1.1481,0.6607,-0.0559,3.4504,-0.2932,-0.6395,-0.2123,908.2932,5.1362,-15.8966,-48.5682,5723.0410,336.2389,-38.6349,2.1116,46.89264370,-114.03143380,1.19798684,957.32299805,
39.682827,0.0466,0.4944,0.7754,-0.0153,-0.9268,0.0656,-0.2909,0.1317,0.0798,908.3007,2.8182,-15.9698,-49.0806,5723.0410,337.6391,-38.7381,3.6226,46.89264370,-114.03143380,1.19798684,957.32299805,
39.782820,0.0525,0.3938,0.5566,0.0522,-1.7029,-2.3078,-0.1328,0.2473,0.4073,908.3050,3.9528,-13.9202,-48.6048,5723.0410,335.8004,-36.1617,3.1415,46.89264370,-114.03143380,1.19798684,957.33343506,
39.882948,0.1527,0.4217,0.6976,0.8545,-0.8338,-1.6128,-1.1720,-0.3105,0.4496,908.3461,5.1118,-11.1752,-49.7028,5723.0410,332.3614,-31.8282,3.4934,46.89265740,-114.03144620,1.84434712,957.33343506,
39.983119,-0.0290,0.1539,0.9955,-1.3981,-1.4394,-0.9462,-3.0925,0.0656,0.4957,908.4031,6.4904,0.0366,-50.1176,5723.0410,330.0317,-18.7089,2.5222,46.89265740,-114.03144620,1.84434712,957.33343506,
40.083419,-0.0579,0.0390,1.4748,-1.3639,-0.7925,5.1866,-0.5463,0.2742,-0.1442,908.7067,5.4534,12.7612,-48.4584,5723.0410,332.9378,-6.7688,2.8041,46.89265740,-114.03144620,1.84434712,957.33343506,
40.183758,0.2678,-0.0837,1.2742,2.0747,-1.9696,2.7396,1.4229,-0.0955,-0.6190,908.6576,4.7336,13.3346,-48.2266,5723.0410,335.4100,-7.9653,3.1673,46.89265740,-114.03144620,1.84434712,957.33343506,
40.283823,-0.0010,-0.0079,0.8356,-0.1200,-2.2656,-1.4378,0.9194,0.2846,0.1785,908.4698,5.4656,6.2342,-50.2518,5723.0410,339.3431,-13.0666,1.7700,46.89265740,-114.03144620,1.84434712,957.33343506,
40.384126,-0.0768,0.3130,0.7161,-0.8359,0.2429,-2.3868,0.2648,0.4294,0.2213,908.3002,6.3806,1.2932,-51.0326,8251.0898,337.4008,-18.6009,1.1405,46.89265740,-114.03144620,1.84434712,957.33343506,
40.485172,0.0369,0.4664,0.8094,0.0002,0.7608,-1.0003,1.3998,-0.4039,0.3761,908.3200,5.3192,-3.5868,-51.1790,7595.5601,335.7230,-23.2919,2.8275,46.89265740,-114.03144620,1.84434712,957.33343506,
40.585436,0.0363,0.4987,1.0042,0.1121,0.6049,1.0389,-0.2826,0.2004,0.3465,908.2883,5.0752,-6.7832,-49.9956,7595.5601,333.8848,-29.2259,2.0960,46.89265740,-114.03144620,1.84434712,957.33343506,
40.685539,-0.2163,0.2689,0.8783,-2.1114,-1.4779,-0.1639,0.0661,-0.0249,1.0088,908.3107,4.9410,-7.1858,-50.6422,6994.9961,331.5439,-26.7070,0.2299,46.89265740,-114.03144620,1.84434712,957.33343506,
40.786176,0.0956,0.2517,0.8271,1.0863,-1.2212,-0.9420,-0.5041,0.4765,1.0752,908.2711,6.8686,-5.9658,-50.4104,6994.9961,324.2816,-24.1619,1.0856,46.89265740,-114.03144620,1.84434712,957.07220459,
40.886707,0.1790,0.3291,0.8265,1.4242,-0.2167,-1.1400,-0.2940,0.1754,1.2312,908.2794,8.3692,-5.3314,-49.6540,6994.9961,316.7641,-22.2134,1.6086,46.89267060,-114.03145660,1.41234994,957.07220459,
40.988069,0.2655,0.3002,1.1194,1.4034,-0.0784,1.7400,-0.1128,0.0406,-0.1046,908.3805,8.6132,-4.5872,-50.0566,6994.9961,313.1097,-19.6094,7.1703,46.89267060,-114.03145660,1.41234994,957.07220459,
41.087329,0.0610,0.3348,0.9334,-0.2515,-0.1497,0.3808,0.4458,0.8782,-0.8345,908.4108,8.6742,-5.1240,-49.6540,6994.9961,316.5645,-21.2782,6.0949,46.89267060,-114.03145660,1.41234994,957.07220459,
41.187413,-0.0906,0.1882,1.1026,-1.3526,-1.4071,1.6453,-0.4031,-0.4306,-1.0205,908.3777,10.5408,-3.3794,-50.1420,6994.9961,322.3396,-21.0910,2.9096,46.89267060,-114.03145660,1.41234994,957.07220459,
41.287824,-0.0153,0.2780,0.7209,-0.2993,-0.2136,-1.9476,-0.0653,0.0390,-0.4059,908.3600,9.4062,-1.9398,-50.0932,6994.9961,325.8691,-19.0220,1.7226,46.89267060,-114.03145660,1.41234994,957.07220459,
41.387929,-0.0924,0.3325,0.6806,-0.8680,0.2353,-2.8614,0.0884,-0.0019,0.0429,908.3214,10.6384,-0.9028,-50.3860,6994.9961,326.5717,-18.9512,0.0864,46.89267060,-114.03145660,1.41234994,957.07220459,
41.488215,-0.1153,0.3980,1.0513,-0.9254,0.8952,0.7273,0.0616,0.1237,0.1188,908.3484,11.3704,-1.3664,-50.2030,6994.9961,326.0542,-19.4880,-0.4193,46.89267060,-114.03145660,1.41234994,957.07220459,
41.588459,0.0114,0.3662,1.3284,0.3416,0.4818,4.8880,0.2208,0.8334,0.0710,908.4335,11.3948,-1.0858,-50.0810,6994.9961,325.3438,-19.4872,-0.6573,46.89267060,-114.03145660,1.41234994,957.07220459,
41.688961,-0.1637,0.2329,1.0214,-0.9913,-0.5222,0.7324,-0.0084,-0.2194,0.3429,908.4265,15.9332,-1.0492,-49.0562,6994.9961,323.0007,-19.6190,-4.6492,46.89267060,-114.03145660,1.41234994,957.07220459,
41.789274,-0.0642,0.1234,1.0011,0.1554,-1.2186,0.4790,-0.2271,0.3285,0.2175,908.3871,14.6766,-1.1834,-49.1538,6994.9961,321.7054,-16.1455,-2.8752,46.89267060,-114.03145660,1.41234994,957.07220459,
41.889092,-0.0252,0.2318,0.7588,0.5778,-0.0500,-2.5473,0.0359,-0.2416,0.2174,908.3354,17.1532,-1.5616,-48.8732,6994.9961,319.2328,-16.3806,-4.2165,46.89267060,-114.03145660,1.41234994,956.76123047,
41.989554,0.0380,0.2491,0.8532,0.9131,-0.2001,-1.2328,-0.0959,-0.2376,-0.0979,908.3220,15.1524,-2.4156,-49.0928,6994.9961,318.9462,-16.7128,-2.5111,46.89268410,-114.03146480,1.26541317,956.76123047,
42.089548,-0.0404,0.2078,1.1016,0.1771,-0.3309,0.9091,-0.1727,-0.3813,-0.5417,908.3436,13.6884,-1.3908,-49.5808,6994.9961,321.2691,-16.0237,-1.7361,46.89268410,-114.03146480,1.26541317,956.76123047,
42.189965,0.0606,0.2144,1.2958,1.0578,0.3159,2.6369,-0.6491,-0.2691,-0.7446,908.3573,14.1764,0.9638,-49.0928,6994.9961,324.2768,-14.0894,-1.9669,46.89268410,-114.03146480,1.26541317,956.76123047,
42.290286,-0.0104,0.2381,0.8533,0.4698,0.4378,-1.0725,-0.0604,0.3325,-0.2154,908.3389,13.3224,3.5136,-49.6418,6994.9961,326.9262,-12.6000,-2.5058,46.89268410,-114.03146480,1.26541317,956.76123047,
42.390491,-0.0658,0.2483,0.6141,0.0895,0.5123,-3.5416,0.0738,0.2302,-0.1409,908.2903,14.2008,3.6112,-49.2270,6994.9961,327.8260,-12.7874,-3.6010,46.89268410,-114.03146480,1.26541317,956.76123047,
42.490632,-0.1255,0.3065,0.8352,-0.3011,1.0659,-1.4907,0.0796,0.0923,-0.0749,908.2718,15.1158,3.0744,-49.2514,6994.9961,328.3007,-13.0701,-4.6982,46.89268410,-114.03146480,1.26541317,956.76123047,
42.590774,-0.0942,0.3318,1.0172,-0.1249,1.0153,0.4715,0.1605,-0.0240,0.2908,908.3001,14.9694,2.4156,-49.0562,6994.9961,327.8263,-14.7730,-4.9477,46.89268410,-114.03146480,1.26541317,956.76123047,
42.690983,-0.1744,0.1674,1.4576,-0.8045,-0.3728,5.0878,0.0236,0.0079,0.1755,908.3301,13.8348,3.7576,-49.1050,6994.9961,327.2275,-13.1750,-3.4647,46.89268410,-114.03146480,1.26541317,956.76123047,
42.791647,-0.0381,0.1614,0.9761,0.0305,-0.5734,0.3062,0.3633,-0.3988,0.3778,908.2997,12.8344,2.2692,-49.7882,6994.9961,325.6545,-14.2048,-1.7274,46.89268410,-114.03146480,1.26541317,956.58380127,
42.891603,-0.0335,0.2120,0.6717,-0.1613,-0.4813,-2.9497,0.2249,-0.1122,0.3860,908.2738,11.8096,0.4270,-49.8248,6994.9961,323.7258,-15.7770,-0.3295,46.89269190,-114.03147550,1.25812137,956.58380127,
42.991852,0.1266,0.2567,0.7309,0.9216,-0.0299,-2.4422,-0.0033,-1.2923,-0.3601,908.2475,9.7234,-0.2684,-50.5812,6994.9961,323.7990,-16.7759,3.0775,46.89269190,-114.03147550,1.25812137,956.58380127,
43.092396,0.2044,0.1703,0.6704,0.9718,-0.3846,-2.9740,-1.4688,-0.2459,-1.0323,908.3507,3.8796,1.1224,-50.5934,6994.9961,328.7679,-14.7185,7.1626,46.89269190,-114.03147550,1.25812137,956.58380127,
43.192557,0.2722,-0.0138,1.5029,2.1730,-0.5230,4.8359,-0.7621,0.9174,-2.2622,908.7791,4.5872,11.7364,-49.4466,6994.9961,336.2457,-5.9238,4.4066,46.89269190,-114.03147550,1.25812137,956.58380127,
43.292845,-0.0717,0.0503,1.2938,-0.1376,-0.8294,3.2126,0.5263,0.5077,-0.7500,908.8528,5.9414,11.7120,-48.9220,6994.9961,346.6674,-8.2086,-0.8452,46.89269190,-114.03147550,1.25812137,956.58380127,
43.393248,-0.1032,0.3233,0.9298,0.2316,0.9985,-0.3257,0.1235,2.6276,0.0461,908.4734,11.9926,8.3204,-49.3856,6994.9961,345.1948,-14.5045,-4.4913,46.89269190,-114.03147550,1.25812137,956.58380127,
43.495189,-0.3867,0.1984,0.9209,-1.4334,-0.7886,-0.8056,-0.5462,1.9386,0.1247,908.1445,18.9222,5.6974,-47.2872,6994.9961,343.0996,-18.9087,-11.6774,46.89269190,-114.03147550,1.25812137,956.58380127,
43.593921,-0.6764,0.1462,0.6228,-1.9159,-1.0404,-2.2520,-0.8443,2.7620,0.5668,908.7673,33.8428,6.2342,-39.3206,6994.9961,335.2521,-19.4734,-29.0511,46.89269190,-114.03147550,1.25812137,956.58380127,
43.694040,-0.6405,-0.0172,0.7683,-0.4414,-1.6246,0.2808,-1.1657,-1.5587,0.7597,910.3157,39.5524,9.7844,-33.2084,6994.9961,329.6841,-12.8673,-36.1686,46.89269190,-114.03147550,1.25812137,956.58380127,
43.794358,-0.2646,-0.2253,0.9330,0.8000,-2.5915,-0.0123,-1.5984,-3.2784,2.8987,908.2702,33.3548,10.5896,-38.3324,6994.9961,323.7969,-2.5390,-23.4973,46.89269190,-114.03147550,1.25812137,956.54278564,
43.894595,0.3560,0.0626,1.3812,2.9871,0.8877,3.7707,1.7771,-2.6472,3.5312,907.7736,18.1170,4.2212,-48.2754,6994.9961,303.0701,0.6552,2.8490,46.89270290,-114.03148670,1.50170565,956.54278564,
43.994970,0.3482,0.2347,0.9576,0.0886,1.9552,-0.2145,-2.4836,-0.5922,1.7114,907.8029,6.5148,-1.9886,-50.7154,6994.9961,286.9801,-1.4153,16.5135,46.89270290,-114.03148670,1.50170565,956.54278564,
44.095541,0.0336,-0.0199,0.8035,-2.7654,1.0222,-1.9067,-1.2335,0.4833,0.1918,907.8605,5.9414,6.4660,-50.7764,6994.9961,282.9097,6.3816,16.7511,46.89270290,-114.03148670,1.50170565,956.54278564,
44.195799,-0.1865,-0.3602,1.0167,-4.2285,-1.2825,0.5686,-0.6074,0.7938,-1.4602,907.9437,7.9910,12.2000,-48.9220,6994.9961,286.5627,10.7261,13.7806,46.89270290,-114.03148670,1.50170565,956.54278564,
44.295952,-0.1490,-0.4604,1.1870,-2.2660,-1.4548,2.1876,-1.7434,2.5884,-2.3108,907.9735,14.2252,20.6058,-45.4328,6994.9961,298.5250,16.4546,6.0026,46.89270290,-114.03148670,1.50170565,956.54278564,
44.396185,-0.1314,-0.1532,0.7651,0.6134,2.7889,-1.3745,-1.5022,3.4263,-1.7965,908.0373,22.2284,29.2068,-36.6366,6994.9961,312.7738,25.0326,-7.8648,46.89270290,-114.03148670,1.50170565,956.54278564,
44.496434,-0.6965,-0.3605,0.3981,-2.2086,2.1322,-3.4082,-0.2643,3.3461,-1.5311,908.1067,30.6464,36.7586,-22.8872,6994.9961,333.1961,35.8542,-23.5185,46.89270290,-114.03148670,1.50170565,956.54278564,
44.596581,-1.1181,-0.4467,1.2191,-5.5293,1.6741,6.4892,-0.5465,2.8732,1.4334,908.0977,36.2828,38.5886,-10.0284,6994.9961,345.5270,46.5036,-36.9939,46.89270290,-114.03148670,1.50170565,956.54278564,
44.696805,-0.8859,-1.0658,0.7350,-1.3401,-4.3452,3.7072,-1.2258,2.3188,-0.3629,908.0941,40.2844,37.5760,1.0614,6994.9961,359.6988,58.6730,-48.2486,46.89270290,-114.03148670,1.50170565,956.54278564,
44.798676,-0.7410,-1.1403,0.0243,-0.1856,-4.6592,-1.2104,-2.1903,-0.4600,0.2203,908.2238,38.4666,36.2462,14.4082,6994.9961,13.4615,79.7186,-51.0681,46.89270290,-114.03148670,1.50170565,956.67687988,
44.899041,-0.8253,-0.3556,-0.0554,-0.4797,2.1569,-0.7797,-2.3885,-0.5664,1.0676,908.1731,43.2856,28.0722,19.1174,4208.1987,1.6881,86.1095,-55.2561,46.89271090,-114.03149380,1.49374366,956.67687988,
44.999264,-0.4455,-0.0125,0.1780,5.5883,5.1220,3.5200,-0.5145,-0.6426,0.7141,908.1703,46.0306,21.1670,20.9108,4208.1987,356.7547,90.7818,-60.6608,46.89271090,-114.03149380,1.49374366,956.67687988,
45.100016,-1.0009,-0.1052,0.4828,0.6489,3.0683,3.0867,0.1851,-0.2200,0.7168,908.1747,48.7146,17.0068,18.5440,4208.1987,340.7839,78.7704,-66.5252,46.89271090,-114.03149380,1.49374366,956.67687988,
45.199585,-1.2172,-0.5320,-0.0824,-2.5544,0.4252,0.2538,0.0144,0.9225,0.1511,908.2501,48.8976,17.5192,20.4594,4208.1987,346.3503,80.1672,-73.7296,46.89271090,-114.03149380,1.49374366,956.67687988,
45.300734,-1.2854,-0.6317,0.3856,-3.1173,-2.4898,2.5855,0.4615,-1.7264,-0.4898,908.3003,47.9216,16.9824,21.7282,4208.1987,335.1416,69.5035,-69.2176,46.89271090,-114.03149380,1.49374366,956.67687988,
45.400444,-1.4052,-0.5296,0.0396,-7.0503,-2.8580,-1.3381,0.2289,-2.1619,0.6868,908.2113,50.5080,18.7148,11.3582,4208.1987,313.7227,50.4521,-62.0832,46.89271090,-114.03149380,1.49374366,956.67687988,
45.500626,-0.3015,-0.1971,0.3046,4.9161,0.9301,-1.4709,0.0578,-2.5929,0.9743,908.2566,52.3258,15.2622,2.3180,4208.1987,297.2313,35.1054,-57.4050,46.89271090,-114.03149380,1.49374366,956.67687988,
45.600665,-0.3783,-0.3748,0.2801,3.1534,-1.1103,-4.0956,-0.6367,-2.8204,1.8407,908.2736,51.6060,9.6746,-13.9812,4208.1987,275.9815,19.4841,-45.7915,46.89271090,-114.03149380,1.49374366,956.67687988,
45.700810,-0.8966,0.0138,1.7133,-3.0111,1.8262,6.9937,-0.0400,-0.6233,1.1117,908.3264,47.7630,4.5872,-25.0344,4208.1987,260.1983,13.9742,-35.5801,46.89271090,-114.03149380,1.49374366,956.67687988,
45.801117,-0.7675,-0.5703,0.4740,-2.2040,-4.9033,-4.4869,-1.5490,-1.9695,1.5223,908.3414,48.4828,-0.1464,-23.0580,4208.1987,258.3899,5.9836,-38.3429,46.89271090,-114.03149380,1.49374366,956.76123047,
45.901367,-1.2557,0.0204,0.2848,-6.5965,1.8668,-4.9463,-1.2532,-0.0123,0.6244,908.2750,46.7260,-0.5856,-26.8766,4208.1987,252.3779,9.9806,-35.4652,46.89272060,-114.03150220,1.17922151,956.76123047,
46.002017,0.0746,-0.0117,1.0875,6.5230,1.3434,2.5273,0.1081,-0.1110,0.9279,908.1749,45.3962,-3.8552,-27.4866,3667.1924,238.9888,5.2615,-34.8034,46.89272060,-114.03150220,1.17922151,956.76123047,
46.102226,-0.7923,0.1289,0.8214,-1.5462,2.1552,1.1924,1.6154,3.4743,-2.2790,908.1839,48.2632,-3.8552,-23.8998,3667.1924,242.7634,2.6254,-37.9510,46.89272060,-114.03150220,1.17922151,956.76123047,
46.202446,-0.5403,-0.5062,0.4153,2.0133,-3.4985,-2.6627,-1.3672,-0.3293,-0.0846,908.2483,53.2408,2.6108,-9.3086,1004.7900,258.9664,11.4028,-52.8168,46.89272060,-114.03150220,1.17922151,956.76123047,
46.302537,-1.0278,-0.7698,0.8450,-1.9506,-3.7142,2.9700,1.7197,2.6136,-3.8778,908.2288,52.4722,11.9560,-9.1378,1004.7900,273.6104,25.6131,-48.7874,46.89272060,-114.03150220,1.17922151,956.76123047,
46.403396,-1.0940,-0.5890,0.3445,-3.8197,-1.3905,-1.4785,-0.7308,-0.8013,-1.0841,908.3420,49.7638,23.2044,-3.7942,1004.7900,294.4811,40.5499,-46.5521,46.89272060,-114.03150220,1.17922151,956.76123047,
46.503168,-0.2983,-0.4248,0.3144,2.0734,2.3536,-3.0385,-0.9882,-4.0061,-2.3745,908.3671,42.5658,31.7810,-8.7962,1004.7900,293.5323,46.9684,-31.0587,46.89272060,-114.03150220,1.17922151,956.76123047,
46.603642,-0.0950,-0.2752,-0.1626,2.3172,5.0710,-6.6272,-2.8374,2.2611,-1.4519,908.4254,33.4890,40.3454,-7.9422,1004.7900,297.1541,56.4685,-19.7726,46.89272060,-114.03150220,1.17922151,956.76123047,
46.704009,-0.0482,-1.0242,-0.4345,1.6635,1.9260,-4.5690,-2.7449,0.7878,-1.3675,908.2897,25.8030,45.3718,15.9454,1004.7900,314.2039,82.2686,-15.4207,46.89272060,-114.03150220,1.17922151,956.72888184,
46.804432,-0.1806,-0.5733,-0.8504,3.1671,-1.4041,4.8343,3.5245,6.8718,1.6936,909.9369,21.1670,48.8366,6.9540,1004.7900,332.0875,70.5586,-17.4750,46.89273030,-114.03150890,1.21145666,956.72888184,
46.904921,-0.3311,-0.9516,-0.2736,1.2838,1.0710,-3.2922,-0.7888,1.4257,-0.7475,908.2156,24.9612,46.3356,13.7494,1004.7900,332.2773,79.5676,-19.8547,46.89273030,-114.03150890,1.21145666,956.72888184,
47.005478,-0.5016,-0.8312,-0.0934,-0.5572,0.9278,-1.0685,-1.4386,-1.6426,1.7332,908.2567,28.5480,43.2246,17.6656,1004.7900,333.1708,89.8007,-26.0456,46.89273030,-114.03150890,1.21145666,956.72888184,
47.105194,-0.1505,-0.9405,0.1462,2.2993,0.0744,2.0122,-1.7007,-1.7235,-0.0723,908.4220,33.3548,35.7948,23.6680,1004.7900,329.5781,94.0345,-22.0004,46.89273030,-114.03150890,1.21145666,956.72888184,
47.205565,-0.3883,-0.8690,-0.0353,0.4637,1.1296,1.3193,-0.5275,1.6734,-0.1125,908.2667,32.8180,33.8062,27.9746,1004.7900,330.9656,100.0510,-21.5326,46.89273030,-114.03150890,1.21145666,956.72888184,
47.305709,-1.0222,-1.1509,0.5559,-6.0860,-1.9914,10.6649,1.3915,0.4326,0.3906,909.7622,31.0856,32.6838,32.0860,1004.7900,337.7573,103.7105,-23.2010,46.89273030,-114.03150890,1.21145666,956.72888184,
47.405950,-0.9008,-1.0430,-0.7763,-4.7603,-1.4433,-8.1376,1.1139,-2.6382,1.0524,909.2017,36.4292,37.3808,17.6412,1004.7900,330.2954,84.7778,-27.4856,46.89273030,-114.03150890,1.21145666,956.72888184,
47.506422,-0.0952,-1.3432,-0.1225,1.7133,-5.7721,-3.8330,1.8308,-1.6114,-1.1104,908.1390,37.7346,37.6736,6.6002,1004.7900,315.4759,72.4414,-24.8516,46.89273030,-114.03150890,1.21145666,956.72888184,
47.606907,-0.1104,-0.3926,-0.1228,0.2490,4.5208,-6.0546,0.7106,-1.9628,-0.7777,908.1735,31.5492,41.3214,-8.3204,1004.7900,302.4125,62.7297,-9.2014,46.89273030,-114.03150890,1.21145666,956.72888184,
47.707045,-0.3636,-0.2656,-0.4122,-2.1929,6.4757,-8.4370,-1.6700,-0.1189,0.8238,908.1768,30.7196,43.4808,-10.3700,556.5650,298.3524,64.2144,-7.1435,46.89273030,-114.03150890,1.21145666,956.72888184,
47.808142,-0.1689,-0.9784,0.0897,-0.0575,-4.5158,-4.5163,-2.3192,-1.6556,0.3508,910.9327,35.0384,40.4918,-4.0260,556.5650,304.1818,67.6757,-15.1100,46.89273030,-114.03150890,1.21145666,956.78497314,
47.908387,-0.4281,-1.8803,-0.1921,-1.6906,-9.5606,-4.9446,-0.0820,1.6164,-1.5532,907.9608,33.5134,41.2116,-5.9048,556.5650,293.2370,73.1514,-10.8682,46.89273840,-114.03151510,1.21043861,956.78497314,
48.008586,-0.6987,-1.0278,-0.0351,-3.8300,0.0807,-2.5861,-0.1890,5.1741,1.0702,908.0695,31.8908,42.9928,0.7442,556.5650,309.9444,77.1186,-14.1562,46.89273840,-114.03151510,1.21043861,956.78497314,
48.108960,-0.4805,-0.7115,-0.1544,-0.2377,1.8741,-1.6321,-1.2913,1.2573,1.3654,908.0875,33.7452,38.9912,16.6530,511.1450,332.5601,91.4715,-27.5907,46.89273840,-114.03151510,1.21043861,956.78497314,
48.210223,-0.4166,-0.7126,0.2125,0.8966,1.8805,4.1199,-1.9001,1.1720,-0.2087,908.1688,33.6964,34.3308,26.8156,461.8050,339.0508,105.8056,-28.4591,46.89273840,-114.03151510,1.21043861,956.78497314,
48.309125,-1.0934,-1.0517,0.5611,-5.5491,-2.0033,9.0512,1.4455,0.6774,-0.1349,909.0502,29.3166,31.7078,33.7696,461.8050,342.3910,108.9673,-27.2285,46.89273840,-114.03151510,1.21043861,956.78497314,
48.409698,-0.7477,-1.1446,-0.6524,-2.1447,-2.7504,-6.2488,1.0032,-3.8287,1.4239,909.1492,32.6106,37.2588,23.2898,461.8050,337.5963,91.0195,-32.1584,46.89273840,-114.03151510,1.21043861,956.78497314,
48.509940,0.0491,-1.5635,-0.1686,4.2301,-10.0285,-4.0488,1.4717,-1.8966,-2.0826,908.0411,37.1978,39.1010,7.2834,461.8050,316.4841,74.8620,-27.7963,46.89273840,-114.03151510,1.21043861,956.78497314,
48.610122,-0.2239,-0.3730,-0.1434,-0.1887,5.2501,-5.8417,1.5342,-3.2246,-0.9563,908.0555,28.0600,44.0908,-6.8320,461.8050,305.5204,64.6823,-10.3288,46.89273840,-114.03151510,1.21043861,956.78497314,
48.710489,-0.3283,-0.0391,-0.3912,-1.6490,8.2620,-8.5910,-1.0708,-0.1148,1.3288,908.1312,25.7420,43.4564,-13.4200,461.8050,298.3366,61.8494,-8.4203,46.89273840,-114.03151510,1.21043861,956.78497314,
48.810896,-0.4699,-1.8695,-0.5926,-1.4379,-10.5666,-9.1237,-0.9799,-1.8162,0.1229,913.7156,33.5988,42.0534,-5.0264,461.8050,307.5432,66.5666,-18.9312,46.89273840,-114.03151510,1.21043861,956.68151855,
48.911056,-0.2114,-2.3300,-0.3664,-0.6269,-12.6279,-7.9372,-0.6781,0.5265,-0.8187,907.9640,31.2198,42.8586,-7.2102,461.8050,292.6977,70.4155,-10.2749,46.89274840,-114.03152700,1.38754296,956.68151855,
49.011425,-0.6669,-1.0882,-0.0732,-3.9396,0.0286,-3.7994,0.2419,4.4875,0.4494,907.9640,26.8034,46.1526,-1.9886,461.8050,308.3880,71.9078,-9.0212,46.89274840,-114.03152700,1.38754296,956.68151855,
49.111434,-0.4995,-0.5465,-0.1727,-1.2880,3.4963,-2.6354,-0.5210,2.2898,-0.2574,908.0048,29.4142,43.2368,13.2980,461.8050,334.6371,85.4349,-22.9540,46.89274840,-114.03152700,1.38754296,956.68151855,
49.211943,-0.3285,-0.7923,0.0530,0.9576,1.6235,1.1704,-1.8986,1.7447,-0.3396,908.0617,26.5106,42.4804,23.6070,461.8050,344.6838,96.4776,-21.8960,46.89274840,-114.03152700,1.38754296,956.68151855,
49.312243,-0.5267,-1.0637,0.7169,-1.1390,-1.0489,10.6648,-0.6701,-3.8541,-0.4199,908.9609,23.1678,36.5268,33.0132,461.8050,343.1207,105.1101,-21.0333,46.89274840,-114.03152700,1.38754296,956.68151855,
49.412587,-0.5916,-0.9356,0.9723,-2.7887,0.3282,11.1213,3.0290,-3.6410,0.7383,909.8124,23.2898,40.2234,29.4020,461.8050,346.4703,97.2616,-23.1875,46.89274840,-114.03152700,1.38754296,956.68151855,
49.512768,-0.5784,-1.5846,-0.2639,-0.6193,-7.2876,-5.4693,1.9042,-1.7016,0.3527,907.9330,35.4288,40.5040,9.2476,461.8050,327.6786,74.2918,-30.1143,46.89274840,-114.03152700,1.38754296,956.68151855,
49.612960,-0.1143,-0.5729,0.1311,1.9308,2.7303,-2.7009,0.9026,-5.5718,-1.6548,908.4238,31.1100,42.6634,-2.8670,461.8050,313.9168,62.6950,-15.3409,46.89274840,-114.03152700,1.38754296,956.68151855,
49.713563,-0.2778,-0.3242,-0.6159,-1.4859,5.0070,-10.6802,0.4261,0.2692,0.2736,908.0124,24.1804,44.4568,-14.2252,461.8050,306.2462,56.0961,-6.3807,46.89274840,-114.03152700,1.38754296,956.68151855,
49.813775,-0.4087,-0.9125,-0.0228,-1.8670,1.6950,-5.5702,-3.1723,1.7173,1.4423,907.9925,27.0718,45.3352,-8.0642,461.8050,304.6352,65.6856,-10.1295,46.89274840,-114.03152700,1.38754296,956.58905029,
49.914433,0.0397,-0.2110,0.4044,3.5815,7.7034,1.2168,-0.7566,-1.5551,-0.1370,908.4354,29.1702,43.9810,-4.0870,461.8050,302.3535,70.3591,-11.5521,46.89275760,-114.03153860,1.37798464,956.58905029,
50.014664,-0.1631,-0.6803,0.0150,0.1402,2.1918,-2.3530,0.3272,2.2647,-0.9244,907.8813,25.8518,45.8964,-0.7076,461.8050,307.7733,74.3318,-9.3595,46.89275760,-114.03153860,1.37798464,956.58905029,
50.114709,-0.6159,-0.8363,0.0000,-2.8685,0.6560,-1.3256,-0.5605,4.4364,0.8795,907.9233,27.9990,45.0912,7.8446,461.8050,327.5375,82.8329,-19.5907,46.89275760,-114.03153860,1.37798464,956.58905029,
50.215206,-0.2714,-0.7504,-0.0810,1.2904,2.3298,0.1107,-2.4463,1.6018,-0.4461,908.1979,24.9856,43.2002,21.7282,461.8050,346.0019,97.1201,-22.9268,46.89275760,-114.03153860,1.37798464,956.58905029,
50.315321,-0.4580,-0.9747,0.1564,-0.2392,-0.2725,3.0643,-1.8702,0.3710,-0.3629,908.1718,24.1438,38.8692,29.7802,461.8050,339.4207,101.0570,-23.6638,46.89275760,-114.03153860,1.37798464,956.58905029,
50.415682,-1.1463,-1.2767,0.0995,-7.1849,-3.8687,3.5473,1.5217,1.2762,-0.1166,908.6902,21.1914,38.0762,33.5988,461.8050,341.7346,105.2344,-20.6931,46.89275760,-114.03153860,1.37798464,956.58905029,
50.515783,-1.4008,-1.5213,-0.4490,-9.8732,-5.6784,-3.9409,3.2857,-1.5363,1.1559,907.8438,25.7054,44.2494,20.0568,461.8050,328.7050,86.1631,-21.3269,46.89275760,-114.03153860,1.37798464,956.58905029,
50.616045,0.1298,-1.4072,-0.2503,3.5398,-5.8483,-5.9271,4.0258,-3.8308,-0.5141,907.9617,30.0364,44.4080,-1.1102,461.8050,316.0093,63.7429,-21.0280,46.89275760,-114.03153860,1.37798464,956.58905029,
50.716246,-0.3651,-0.4078,0.1499,-2.4046,3.1528,-3.4213,1.3653,1.0605,-0.4026,908.7933,20.9108,44.9082,-15.9942,461.8050,299.0898,49.5506,-6.8286,46.89275760,-114.03153860,1.37798464,956.80169678,
50.817014,-0.2639,-0.1618,-0.5389,-0.5210,6.1347,-12.4776,-1.9120,-0.8658,0.7808,907.9882,22.9360,42.9074,-16.9214,461.8050,301.5155,48.8602,-10.0544,46.89276640,-114.03154530,1.23675311,956.80169678,
50.916932,-0.2744,-0.8851,-0.2198,0.7799,-1.9921,-6.3175,0.5198,-4.4086,0.7486,910.4852,30.8538,44.0176,-1.9764,461.8050,311.4503,61.8352,-22.2112,46.89276640,-114.03154530,1.23675311,956.80169678,
51.017004,-0.1948,-1.5841,-0.0509,0.7890,-7.2766,-4.9159,0.7286,-0.3858,-2.1981,907.6174,29.7558,44.1274,-4.4042,461.8050,299.6139,63.8640,-15.7242,46.89276640,-114.03154530,1.23675311,956.80169678,
51.117348,-0.6467,-1.1702,0.2330,-2.6662,-2.0083,-1.0953,-2.3087,3.2797,1.2517,907.7609,24.7660,47.0432,-1.6226,461.8050,307.7785,71.6087,-14.5354,46.89276640,-114.03154530,1.23675311,956.80169678,
51.217519,-0.3671,-0.7613,-0.0209,0.6235,1.8815,-1.1291,-0.9350,1.9742,0.4437,907.8441,28.6944,44.1518,12.3830,461.8050,325.6822,85.0585,-24.2154,46.89276640,-114.03154530,1.23675311,956.80169678,
51.317658,-0.3154,-0.8267,-0.1428,1.3551,1.2640,0.9664,-1.7887,2.1902,-0.2154,907.9819,26.0226,40.6260,25.5712,461.8050,343.0731,99.2300,-24.7375,46.89276640,-114.03154530,1.23675311,956.80169678,
51.418069,-0.7852,-1.1663,1.1702,-2.9839,-3.0720,14.6353,0.0192,-0.6038,-0.1523,909.1357,29.3288,36.0510,31.2442,461.8050,335.0599,109.0663,-25.7368,46.89276640,-114.03154530,1.23675311,956.80169678,
51.518299,-1.0266,-1.5698,0.3377,-3.3175,-5.1846,4.8898,3.4405,-3.8051,-0.8189,908.9523,28.7676,41.3946,21.3256,461.8050,324.3244,92.4028,-22.9903,46.89276640,-114.03154530,1.23675311,956.80169678,
51.619858,-0.1128,-1.3292,-0.1934,3.3652,-4.8323,-5.1944,1.3700,-3.0616,-0.3459,908.3454,32.2202,43.3222,1.7080,461.8050,321.4449,69.4853,-26.6055,46.89276640,-114.03154530,1.23675311,956.80169678,
51.718792,-0.2098,-0.4785,0.3151,0.2055,3.6095,-2.0082,0.8241,-2.3349,-0.3214,908.5283,24.9368,44.1030,-13.3956,461.8050,304.5465,58.6890,-12.1027,46.89276640,-114.03154530,1.23675311,956.80169678,
51.818958,-0.2467,-0.2726,-0.6026,0.3593,5.1832,-11.5322,-1.0028,0.0516,0.6035,908.1011,25.8762,41.8216,-18.5684,461.8050,304.8477,53.9584,-13.7448,46.89276640,-114.03154530,1.23675311,956.80169678,
51.919190,-0.4833,-2.4851,1.5563,-3.2039,-21.2862,46.1565,3.4977,1.3831,0.7691,912.5937,32.0372,44.1640,-0.9150,461.8050,315.0527,73.3075,-23.7761,46.89276640,-114.03154530,1.23675311,957.05828857,
52.019734,-0.4410,-2.1866,-0.1425,-1.0908,-10.7402,-5.1263,0.3788,-0.7136,-0.2870,908.2305,32.9156,41.5532,-3.6600,461.8050,307.5756,73.2993,-24.9292,46.89277880,-114.03155520,1.33937514,957.05828857,
52.119698,-0.4291,-0.8104,0.0817,-0.5791,1.5278,-2.1097,-2.1646,3.1807,-0.0330,907.8433,27.3768,44.5178,-4.5872,461.8050,314.4010,73.6921,-19.3248,46.89277880,-114.03155520,1.33937514,957.05828857,
52.219985,-0.2225,-0.6658,-0.1229,2.0620,1.7747,-1.5979,-0.6386,2.5759,0.8502,907.8959,31.4882,42.7366,9.3452,461.8050,334.9083,88.2036,-28.6165,46.89277880,-114.03155520,1.33937514,957.05828857,
52.320514,-0.5895,-0.8297,0.0656,-0.7409,0.5232,1.8965,-2.0769,0.2968,0.0178,907.9541,30.2926,40.3454,20.2154,461.8050,341.5263,99.0795,-29.5057,46.89277880,-114.03155520,1.33937514,957.05828857,
52.420796,-0.8996,-1.1922,1.9152,-3.8886,-3.3360,21.2891,-2.3896,-3.1201,-0.0938,908.4061,26.9498,34.6480,33.0254,461.8050,343.4453,109.7803,-29.6202,46.89277880,-114.03155520,1.33937514,957.05828857,
52.520737,-0.3959,-1.1840,0.8336,1.4342,-2.7786,9.8885,2.5582,-4.8409,-0.6344,910.0293,27.8404,37.3076,28.6456,461.8050,337.3709,99.1483,-29.9959,46.89277880,-114.03155520,1.33937514,957.05828857,
52.621169,-0.5489,-1.4884,-0.3341,-0.4620,-6.5016,-6.0363,3.1254,-1.1926,0.0146,907.8126,33.6232,41.3702,6.9540,461.8050,321.7493,71.7324,-30.8601,46.89277880,-114.03155520,1.33937514,957.05828857,
52.721306,-0.1959,-0.6528,0.2690,2.2404,1.8639,-2.9535,0.4256,-4.7080,-1.2554,908.3091,28.6334,43.8956,-5.9902,461.8050,311.3275,61.8760,-19.0241,46.89277880,-114.03155520,1.33937514,957.42993164,
52.821539,-0.2600,-0.3588,-0.5085,-0.3987,4.6312,-10.2476,0.4628,1.6788,0.1257,908.1225,23.3142,44.2982,-13.4810,461.8050,305.0707,55.5110,-11.5408,46.89278860,-114.03156370,1.21178532,957.42993164,
52.921979,-0.5023,-1.2530,0.4004,-2.1214,-1.0307,-2.9420,-3.5574,1.9113,1.7398,907.9957,26.1202,44.6642,-9.4550,461.8050,301.2690,65.0314,-15.4116,46.89278860,-114.03156370,1.21178532,957.42993164,
53.023381,-0.5594,-1.2376,-0.1382,-1.0710,0.0227,-3.5426,-0.6944,-2.4084,0.3204,908.8748,29.6094,43.7370,-5.0508,461.8050,300.2732,70.7213,-19.2393,46.89278860,-114.03156370,1.21178532,957.42993164,
53.122418,-0.1280,-0.4827,-0.3241,2.2566,3.7565,-5.7362,0.5451,3.7052,-0.7262,907.8146,26.7424,44.3226,-6.5026,461.8050,306.7892,67.3836,-16.5422,46.89278860,-114.03156370,1.21178532,957.42993164,
53.222743,-0.4532,-0.7472,-0.0239,0.1725,1.4777,-1.2041,-0.0534,3.0001,0.1938,907.8798,29.3044,44.6764,7.8202,461.8050,331.9842,83.8651,-25.3003,46.89278860,-114.03156370,1.21178532,957.42993164,
53.323133,-0.4587,-0.8400,-0.0012,0.0154,0.6759,0.1551,-2.1084,1.2888,0.0325,907.9591,27.5476,43.2612,15.8722,461.8050,344.2373,93.7424,-25.8876,46.89278860,-114.03156370,1.21178532,957.42993164,
53.423399,-0.7049,-1.0182,0.3763,-2.2760,-1.4583,5.0606,-3.8522,1.1296,-0.2013,908.1532,23.6314,36.5756,32.3666,461.8050,351.6789,109.3755,-25.7396,46.89278860,-114.03156370,1.21178532,957.42993164,
53.523609,-0.5843,-1.1031,0.8346,-1.7046,-2.7928,9.0299,1.8509,-0.9413,-0.1566,909.5357,25.4614,36.8318,31.4028,461.8050,348.4139,108.5219,-26.4213,46.89278860,-114.03156370,1.21178532,957.42993164,
53.623682,-0.9017,-1.6486,-0.4114,-5.8628,-7.2625,-5.0883,4.7496,-0.6017,1.0872,907.8041,30.5244,42.8830,12.8588,461.8050,330.7626,80.5976,-28.6072,46.89278860,-114.03156370,1.21178532,957.42993164,
53.724000,-0.1725,-0.7105,0.2380,4.1750,-0.1734,-2.0840,1.1060,-3.4015,-0.8308,908.4496,31.2198,42.3462,-0.7564,461.8050,326.9373,69.3172,-24.9330,46.89278860,-114.03156370,1.21178532,957.42993164,
53.824575,-0.2118,-0.3249,-0.4642,1.0226,4.4513,-8.4961,0.6301,1.2956,0.3734,908.0195,29.0238,42.4926,-9.6502,461.8050,321.8101,58.9675,-20.9072,46.89278860,-114.03156370,1.21178532,957.76342773,
53.924525,-0.3514,-0.5160,-0.2590,0.7994,3.6721,-6.3808,-3.2606,-0.3604,0.6629,907.8295,31.1710,42.9806,-5.6120,461.8050,318.7497,66.5168,-23.2916,46.89280010,-114.03157470,1.42170584,957.76342773,
54.024578,-0.3543,-1.2107,0.7877,1.6647,-2.4571,5.7926,-1.5906,-2.9889,-0.2402,909.3607,34.1600,41.2238,1.4274,461.8050,323.8801,79.5920,-27.4669,46.89280010,-114.03157470,1.42170584,957.76342773,
54.124977,-0.0751,-0.6564,-0.2457,2.9183,3.5378,-5.4335,0.4908,3.4842,-0.2096,907.7316,29.3166,42.4560,-8.8084,461.8050,308.0839,69.2732,-20.1513,46.89280010,-114.03157470,1.42170584,957.76342773,
54.225595,-0.6897,-0.7400,-0.0389,-2.7777,0.5689,-1.7405,-1.7408,2.1688,0.5259,907.8477,32.4276,42.1388,6.2464,461.8050,329.4209,84.3472,-26.0079,46.89280010,-114.03157470,1.42170584,957.76342773,
54.325748,-0.3809,-0.8399,0.3197,1.0236,0.0009,3.5644,-2.2871,2.1721,0.2143,907.9484,33.0986,38.6862,18.7636,461.8050,332.8869,94.8520,-30.5046,46.89280010,-114.03157470,1.42170584,957.76342773,
54.425787,-0.6177,-0.8570,0.3740,-0.7874,0.1222,5.5149,-1.4582,1.1207,-0.3261,908.3573,28.7188,34.3430,31.5248,461.8050,340.7807,104.8398,-29.5839,46.89280010,-114.03157470,1.42170584,957.76342773,
54.526081,-0.8631,-1.0529,0.5250,-3.8134,-1.7845,6.9835,1.7374,-0.5124,-0.3100,908.9140,26.4862,36.1364,32.4398,461.8050,344.2766,105.3975,-26.7264,46.89280010,-114.03157470,1.42170584,957.76342773,
54.626156,-1.0749,-1.6684,-0.4541,-5.8698,-7.7136,-6.0515,4.6271,-0.9281,0.4336,907.8744,31.6102,41.9924,13.0418,461.8050,327.7386,79.3044,-28.0758,46.89280010,-114.03157470,1.42170584,957.76342773,
54.726637,-0.1173,-0.8047,0.0014,3.3309,-0.8106,-4.3483,0.8809,-3.5817,-0.7004,908.0557,31.1954,43.0782,-0.5124,461.8050,317.8356,65.1520,-22.1297,46.89280010,-114.03157470,1.42170584,957.76342773,
54.827639,-0.3444,-0.2988,-0.2651,-0.3123,4.9604,-7.0603,1.3519,1.0215,0.4958,908.3345,28.3284,42.5780,-10.9190,461.8050,310.8494,56.2955,-17.2315,46.89280010,-114.03157470,1.42170584,957.76342773,
54.928130,-0.3662,-0.3497,-0.3436,0.4855,5.3737,-9.0673,-2.7481,-0.4748,0.6534,907.8273,30.7684,41.6752,-9.8942,461.8050,308.0883,58.3918,-20.0066,46.89280010,-114.03157470,1.42170584,957.64086914,
55.029093,-0.1210,-0.3353,0.1781,2.6380,2.9546,-3.1670,-1.5753,-1.9005,0.4989,909.9916,35.6606,41.4434,-0.7076,461.8050,311.0223,70.3614,-26.2612,46.89281350,-114.03158140,1.47999287,957.64086914,
55.129308,-0.2639,-0.9358,-0.0437,0.2488,-2.7463,-4.0943,0.9711,1.0585,-1.4376,907.8000,32.2812,41.4434,-6.1000,461.8050,303.2021,70.1729,-19.5196,46.89281350,-114.03158140,1.47999287,957.64086914,
55.229556,-0.5231,-0.9206,-0.1067,-1.4355,-0.6909,-1.4643,-0.6499,3.3824,1.1063,907.8238,32.2934,42.2608,8.3692,461.8050,326.2130,83.8522,-25.5689,46.89281350,-114.03158140,1.47999287,957.64086914,
55.329738,-0.4564,-0.7980,0.0166,0.7695,1.3049,1.1017,-1.9233,1.3364,-0.1250,907.9007,32.7204,39.5158,15.9332,461.8050,334.0455,97.0099,-28.3321,46.89281350,-114.03158140,1.47999287,957.64086914,
55.430116,-0.6490,-0.9085,0.2547,-0.7888,-0.3463,4.1956,-2.2102,1.9577,-0.3462,907.9682,30.9026,36.5024,26.9010,461.8050,335.4216,102.6380,-30.5909,46.89281350,-114.03158140,1.47999287,957.64086914,
55.530054,-0.9932,-1.0390,0.1578,-4.7254,-2.0070,5.1880,2.0267,1.0753,-0.3636,908.6174,28.3040,33.8550,32.1470,461.8050,338.3198,109.7519,-28.1557,46.89281350,-114.03158140,1.47999287,957.64086914,
55.630544,-1.3520,-1.3870,-0.3378,-9.3716,-4.9360,-3.2292,3.3932,-1.5608,0.6863,909.3149,32.3544,40.5162,17.4460,461.8050,322.7690,87.6993,-29.1720,46.89281350,-114.03158140,1.47999287,957.64086914,
55.730812,0.0253,-1.0988,-0.1597,5.2344,-3.5886,-5.7695,0.7585,-3.4690,-1.0088,907.9125,33.8062,41.6508,1.2200,461.8050,314.7112,66.2300,-27.6429,46.89281350,-114.03158140,1.47999287,957.80621338,
55.830962,-0.2980,-0.3966,0.0590,-0.4286,4.2476,-4.5059,1.4965,0.2193,-0.3747,908.3816,26.5106,43.9444,-11.0776,461.8050,300.4998,57.4766,-13.3449,46.89282480,-114.03158590,1.27763569,957.80621338,
55.931338,-0.2997,-0.3557,-0.4505,0.1921,4.9216,-9.5476,-2.8659,-1.1666,0.9622,907.8782,28.1454,42.8342,-11.0166,461.8050,302.6029,59.5442,-17.0007,46.89282480,-114.03158590,1.27763569,957.80621338,
56.032545,-0.4913,-0.5730,-0.0001,-0.6582,2.5461,-3.4180,-1.3046,-1.0385,0.5410,912.1224,33.4524,42.5780,-0.8662,461.8050,306.7249,70.4009,-24.5849,46.89282480,-114.03158590,1.27763569,957.80621338,
56.131756,-0.2688,-1.1090,-0.1210,1.2826,-4.6862,-4.4775,1.1166,0.8784,-1.4189,907.8459,33.5134,40.7846,-4.4286,461.8050,301.1572,67.0845,-23.7793,46.89282480,-114.03158590,1.27763569,957.80621338,
56.232223,-0.5450,-0.9781,-0.0997,-1.2675,-1.1081,-2.9536,-1.2322,3.8056,1.1517,907.8333,31.4516,43.0660,2.4522,461.8050,319.0202,77.7327,-25.8658,46.89282480,-114.03158590,1.27763569,957.80621338,
56.332409,-0.5308,-0.7167,-0.0219,0.0781,1.7724,0.1067,-1.6795,0.6557,-0.1405,907.9294,34.4528,41.3946,13.5298,461.8050,330.8682,93.6811,-30.5678,46.89282480,-114.03158590,1.27763569,957.80621338,
56.432434,-0.5335,-0.8601,0.2660,0.2219,0.2344,4.0206,-2.1614,1.5794,-0.0257,907.9962,32.2812,36.3438,25.1808,461.8050,330.2594,98.6232,-31.2897,46.89282480,-114.03158590,1.27763569,957.80621338,
56.532976,-0.8442,-1.0221,0.2794,-2.7889,-1.9603,6.5462,1.5938,1.3025,-0.3296,909.0760,29.2678,32.5984,32.7448,461.8050,334.8993,107.5802,-29.2646,46.89282480,-114.03158590,1.27763569,957.80621338,
56.633133,-1.6289,-1.4661,-0.3701,-10.6084,-5.2040,-2.7133,3.9205,-1.2375,1.0620,909.5735,32.3544,39.6500,20.6058,461.8050,324.9712,87.7359,-29.5440,46.89282480,-114.03158590,1.27763569,957.80621338,
56.733378,-0.0235,-1.2324,0.0518,4.7734,-5.0813,-2.9830,0.5032,-2.5456,-0.2098,908.4473,36.3316,39.8696,4.6604,461.8050,318.8958,68.1252,-32.0925,46.89282480,-114.03158590,1.27763569,958.50677490,
56.834539,-0.2882,-0.4494,-0.3164,1.3660,2.9907,-5.8762,1.6873,0.6728,-0.1981,908.3060,32.6228,41.1140,-10.6750,461.8050,306.8700,55.5216,-21.3742,46.89283790,-114.03159440,1.38087356,958.50677490,
56.934538,-0.2010,-0.1564,-0.4897,2.0038,6.0822,-10.1267,-2.0255,-0.7746,0.3824,907.9103,33.3304,40.1136,-9.7478,461.8050,304.0810,56.5774,-22.4922,46.89283790,-114.03159440,1.38087356,958.50677490,
57.034828,-0.4510,-1.0573,-0.3479,0.7142,-8.5248,-5.6087,-1.1097,1.4669,0.4225,912.4000,36.7708,39.7232,-0.9760,461.8050,310.1022,64.9324,-28.7052,46.89283790,-114.03159440,1.38087356,958.50677490,
57.135127,-0.4449,-1.8148,-0.0086,-3.3478,-11.0352,-5.5795,0.3476,-1.3340,-1.8196,907.8298,34.3796,40.2844,-6.5758,461.8050,295.7692,63.0844,-21.5168,46.89283790,-114.03159440,1.38087356,958.50677490,
57.235703,-0.7515,-1.1875,0.1298,-3.4077,-2.4208,-1.1442,-1.7029,4.7219,0.6776,908.0116,30.2438,44.5910,3.0378,461.8050,312.5553,74.5459,-20.7720,46.89283790,-114.03159440,1.38087356,958.50677490,
57.335930,-0.3208,-0.6472,0.0269,2.4226,2.0819,0.1994,-1.3145,1.9007,0.5018,907.8882,35.2824,39.1498,16.1162,461.8050,330.0113,90.1515,-33.1699,46.89283790,-114.03159440,1.38087356,958.50677490,
57.436391,-0.4914,-0.7169,0.2753,0.6719,1.4055,4.6361,-1.9674,1.9870,-0.3572,907.9533,30.6098,35.8802,29.1092,461.8050,342.6656,105.7063,-31.3941,46.89283790,-114.03159440,1.38087356,958.50677490,
57.536521,-1.0267,-1.2271,0.4215,-4.0542,-3.4279,7.8962,1.3035,0.5985,-0.1294,909.0534,28.1454,32.7692,33.2816,461.8050,343.8029,111.0087,-29.6069,46.89283790,-114.03159440,1.38087356,958.50677490,
57.637099,-1.7538,-1.5739,-0.4256,-12.9242,-6.5451,-4.2161,3.7313,-2.1509,1.0363,909.2709,33.6598,40.0160,17.6412,461.8050,329.5120,88.7882,-31.1010,46.89283790,-114.03159440,1.38087356,958.50677490,
57.737280,-0.1112,-1.2402,-0.1032,4.7745,-5.1481,-4.6209,0.6756,-2.5109,-0.8855,908.1125,34.5992,41.2238,3.7576,461.8050,321.3459,68.9278,-30.9327,46.89283790,-114.03159440,1.38087356,959.03741455,
57.837889,-0.2625,-0.2956,-0.0502,1.0985,5.0761,-4.8896,1.8305,0.4767,0.0647,908.1727,31.0978,42.1632,-9.8820,461.8050,308.1965,59.7921,-19.6322,46.89285050,-114.03160520,1.59194589,959.03741455,
57.938295,-0.2286,-0.1506,-0.4636,2.0523,6.8607,-9.4700,-2.3757,-0.3923,0.3632,907.8259,33.1352,40.0892,-9.8576,461.8050,307.2656,60.1406,-22.7035,46.89285050,-114.03160520,1.59194589,959.03741455,
58.038423,-0.3746,-0.5443,-0.2737,0.8655,1.4178,-6.9589,-1.7690,-0.2358,0.5420,915.1100,35.9778,39.2840,-0.2440,461.8050,316.4857,69.8723,-29.9600,46.89285050,-114.03160520,1.59194589,959.03741455,
58.138870,-0.2796,-1.1162,0.0447,0.9084,-3.7909,-2.8439,0.6113,-1.3203,-2.0853,907.8335,34.9896,41.2116,-4.2090,461.8050,303.6274,69.1915,-22.9159,46.89285050,-114.03160520,1.59194589,959.03741455,
58.240230,-0.7959,-1.1368,-0.0821,-4.4711,-2.7218,-2.5881,-1.1444,4.0855,1.7227,907.8586,31.0978,43.1392,3.7332,461.8050,319.1766,77.8758,-24.0736,46.89285050,-114.03160520,1.59194589,959.03741455,
58.339711,-0.3735,-0.7861,0.0163,1.0231,1.3560,0.2232,-2.1544,1.1409,0.0800,907.8953,34.0258,38.7594,17.0678,461.8050,331.7184,93.2077,-30.8385,46.89285050,-114.03160520,1.59194589,959.03741455,
58.440150,-0.4603,-0.8080,0.3205,1.2746,0.9570,5.1942,-2.0385,1.1456,-0.5205,907.9631,31.7078,35.2580,28.9750,461.8050,340.2592,108.7200,-28.8387,46.89285050,-114.03160520,1.59194589,959.03741455,
58.540521,-0.9934,-1.1590,0.4845,-5.1248,-2.9929,8.1389,1.1176,0.4809,-0.1457,909.1240,28.5114,33.5500,33.8306,461.8050,341.7164,112.1690,-26.4191,46.89285050,-114.03160520,1.59194589,959.03741455,
58.641183,-1.6170,-1.5285,-0.3995,-11.8518,-6.1368,-3.0292,4.4255,-0.7573,0.9590,907.7574,32.1714,40.9066,20.4350,461.8050,329.3104,91.7947,-27.4253,46.89285050,-114.03160520,1.59194589,959.03741455,
58.740849,-0.1087,-1.2291,-0.0518,3.8571,-5.0322,-4.1905,0.3669,-2.5648,-0.3632,908.1740,34.7090,41.5166,3.6600,461.8050,321.5298,70.9802,-28.9153,46.89285050,-114.03160520,1.59194589,959.03741455,
58.841089,-0.3075,-0.4390,-0.0093,0.4395,3.6692,-3.6648,1.9784,0.4587,-0.0575,908.1381,31.2320,42.3706,-9.1378,461.8050,308.0091,60.1178,-19.1078,46.89285050,-114.03160520,1.59194589,959.46691895,
58.941415,-0.1336,-0.0026,-0.4775,2.3483,7.6330,-10.4439,-1.4845,-1.0258,0.4248,907.9089,32.1104,39.9306,-12.4074,461.8050,304.8212,57.1257,-20.5481,46.89286480,-114.03161660,1.38652623,959.46691895,
59.041948,-0.5041,-1.8212,0.0899,-1.4957,-11.9560,1.2934,0.5194,-0.1245,0.5707,909.9297,35.4044,41.2726,-3.3672,461.8050,306.0976,70.4485,-26.8530,46.89286480,-114.03161660,1.38652623,959.46691895,
59.141898,-0.6587,-1.6222,-0.2379,-3.0805,-8.3229,-5.9857,0.5531,-1.6494,-1.2881,907.9455,36.3438,40.4186,-5.4168,461.8050,298.2446,71.6069,-25.4187,46.89286480,-114.03161660,1.38652623,959.46691895,
59.242483,-0.9469,-1.3212,-0.0312,-4.7245,-3.6615,-2.5332,-0.3669,4.7387,0.6897,907.8231,32.9888,42.8952,-1.0614,461.8050,309.9279,76.1576,-23.7943,46.89286480,-114.03161660,1.38652623,959.46691895,
59.342750,-0.4842,-0.5292,-0.0544,0.5366,3.8234,-0.6225,-1.7875,1.0550,0.0853,907.8365,34.4040,40.1624,11.6876,521.2350,327.9648,89.8090,-30.0063,46.89286480,-114.03161660,1.38652623,959.46691895,
59.443186,-0.3342,-0.6155,0.4217,1.6077,2.3775,5.0574,-1.8556,0.7154,0.0458,908.5757,32.2080,34.9042,27.0474,521.2350,332.3644,98.6988,-30.3895,46.89286480,-114.03161660,1.38652623,959.46691895,
59.543200,-0.8029,-1.0145,0.2522,-2.5342,-1.0239,4.0918,-0.8112,1.4081,-0.4586,908.2798,28.1454,34.0380,33.1108,521.2350,337.8471,103.8284,-27.4929,46.89286480,-114.03161660,1.38652623,959.46691895,
59.643346,-0.6284,-1.3379,0.6509,-1.0152,-3.6884,8.4006,3.0180,-4.5166,-0.7240,909.5784,28.9994,37.5272,28.6456,521.2350,331.5756,95.8297,-26.4605,46.89286480,-114.03161660,1.38652623,959.46691895,
59.743501,-0.5784,-1.4334,-0.3882,-2.9975,-6.0820,-6.7530,3.7400,-0.7904,0.3516,907.7668,33.6232,42.6390,6.4538,521.2350,320.8880,69.1822,-27.2717,46.89286480,-114.03161660,1.38652623,959.60217285,
59.844876,-0.3580,-0.5151,0.3918,0.5173,2.5193,-0.6969,1.1982,-2.4917,0.0804,908.4089,33.0742,41.7118,-5.7706,521.2350,309.6332,60.9445,-21.1779,46.89286810,-114.03161940,1.38094783,959.60217285,
59.944056,-0.2308,-0.1991,-0.7956,1.1362,5.2312,-14.0943,-1.0021,-2.3001,0.7001,907.8627,33.2572,38.3568,-15.1158,521.2350,299.9969,51.2397,-18.8354,46.89286810,-114.03161940,1.38094783,959.60217285,
60.044581,-0.7047,-1.4602,1.0549,-2.0677,-3.6178,-0.5138,-5.2897,5.5032,0.4706,908.3058,35.3556,40.3942,-6.3562,521.2350,299.5002,65.5387,-21.9786,46.89286810,-114.03161940,1.38094783,959.60217285,
60.145017,-1.2515,-1.6059,-0.5390,-6.9600,-5.7406,-6.6052,-0.5764,-0.9161,-0.2172,909.1434,37.7712,38.6862,-3.6722,521.2350,297.6542,69.9456,-27.5585,46.89286810,-114.03161940,1.38094783,959.60217285,
60.245475,-0.1364,-0.8031,-0.1574,2.7292,1.9140,-5.5737,-1.8367,3.6915,-0.9552,907.9052,32.6228,41.1018,-6.7466,521.2350,297.9123,68.3215,-18.9804,46.89286810,-114.03161940,1.38094783,959.60217285,
60.345625,-0.2569,-0.5154,-0.1111,1.8767,3.2122,-2.3100,-0.6284,2.3392,1.2986,907.8439,35.5386,40.6992,9.2476,521.2350,323.6695,84.1462,-27.5652,46.89286810,-114.03161940,1.38094783,959.60217285,
60.445764,-0.5172,-0.6663,0.0242,-0.0636,2.0941,1.1098,-2.1765,1.0420,-0.1664,907.9194,33.3914,38.6374,19.3004,521.2350,333.1947,96.8326,-27.8637,46.89286810,-114.03161940,1.38094783,959.60217285,
60.546011,-0.6876,-1.0225,0.5593,-1.6602,-1.1827,6.4866,-3.6075,2.6600,-0.3292,908.0280,31.0612,33.6842,31.4882,521.2350,336.9038,107.7212,-27.2308,46.89286810,-114.03161940,1.38094783,959.60217285,
60.646773,-0.4612,-0.8974,1.0350,-0.6410,0.0261,12.7984,2.8274,-2.9017,-0.2652,910.3795,30.0852,35.1848,29.7314,521.2350,336.0861,105.0576,-26.1268,46.89286810,-114.03161940,1.38094783,959.60217285,
60.746683,-0.8103,-1.6297,-0.4716,-4.8650,-7.4721,-6.9078,3.6745,-1.3361,0.5684,907.7662,35.3678,41.1262,8.6254,521.2350,321.9424,77.2440,-28.7054,46.89286810,-114.03161940,1.38094783,959.60217285,
60.847293,-0.1467,-0.6668,0.3889,2.9034,1.3858,-0.0453,1.6417,-3.6371,-0.5929,908.5198,34.3674,39.6744,-4.7824,521.2350,308.5650,64.2238,-22.3870,46.89286810,-114.03161940,1.38094783,959.71606445,
60.947575,-0.2088,-0.2237,-0.5562,1.1748,5.1005,-10.7364,0.5578,-0.8956,0.1048,907.9684,33.2450,38.9424,-13.5054,521.2350,305.4089,53.6194,-19.4907,46.89288400,-114.03163230,1.27971101,959.71606445,
