# tool=multi_record
# schema_version=2
# sensors=accelerometer|linear_acceleration|gyroscope|barometer|magnetometer|light|orientation|gps
# Inertial correction: sensor=g_force; operation=add; unit=m/s^2; x=-0.10726921; y=-0.2757522; z=0.038988113
# Inertial correction: sensor=linear_acceleration; operation=add; unit=m/s^2; x=0.0; y=0.0; z=0.0
# Inertial correction: sensor=gyroscope; operation=add; unit=rad/s; x=0.0; y=0.0; z=0.0
time,gFx,gFy,gFz,ax,ay,az,wx,wy,wz,p,Bx,By,Bz,I,Azimuth,Pitch,Roll,Latitude,Longitude,Speed (m/s),Altitude (m),
0.045271,0.0152,0.3661,0.9705,-0.8842,-0.1190,0.5571,-0.2112,0.6538,0.0711,901.1732,-11.9560,-25.0954,-51.6670,93206.5703,120.9094,-24.1213,7.0973,0.00000000,0.00000000,0.00000000,0.00000000,
0.145301,-0.1082,0.3156,0.9862,-1.7895,-1.0293,0.8860,0.6078,0.2198,0.0128,901.2326,-9.4184,-27.0108,-50.9960,93206.5703,119.8137,-26.3470,5.3156,0.00000000,0.00000000,0.00000000,0.00000000,
0.245526,-0.1182,0.2312,1.3034,-1.8232,-1.6677,3.8997,-0.2203,-0.1567,0.2955,901.3583,-9.5770,-26.7424,-50.6666,93206.5703,119.0436,-25.6883,4.2885,0.00000000,0.00000000,0.00000000,0.00000000,
0.345588,-0.0705,0.2676,0.9474,-1.0851,-1.2231,0.4311,0.1203,0.4171,-0.0767,901.2961,-10.2846,-27.0962,-50.9838,93206.5703,117.4676,-25.6974,3.7195,0.00000000,0.00000000,0.00000000,0.00000000,
0.446178,0.0213,0.2524,0.5058,-1.0333,-1.7585,-3.1957,0.2156,-1.1495,0.1986,901.0363,-10.8824,-29.0604,-49.3490,93206.5703,118.9034,-27.7295,4.7011,0.00000000,0.00000000,0.00000000,0.00000000,
0.546369,-0.1557,0.3611,0.8135,-2.1151,0.1518,-0.2494,-0.1410,-0.1762,-0.3602,901.0484,-16.1284,-26.3032,-48.9098,93206.5703,121.0911,-24.9478,9.4257,0.00000000,0.00000000,0.00000000,0.00000000,
0.646712,-0.0050,0.4080,0.9930,-1.2266,0.7237,0.5813,-0.2119,0.4130,-0.0072,900.9797,-16.4212,-26.2544,-49.5320,93206.5703,120.5315,-23.7862,9.5112,0.00000000,0.00000000,0.00000000,0.00000000,
0.746918,0.0605,0.3463,1.1019,-0.7589,0.7623,1.6714,-0.7202,-0.1274,0.0146,901.0406,-14.3350,-23.6924,-51.0692,93206.5703,117.9987,-21.4105,6.4618,0.00000000,0.00000000,0.00000000,0.00000000,
0.846861,0.1924,0.1506,1.1558,0.2509,-1.3174,3.1314,0.3707,-0.8218,0.1007,901.1349,-16.7262,-21.2036,-51.5084,93206.5703,119.1162,-18.4346,9.7252,0.00000000,0.00000000,0.00000000,0.00000000,
0.947057,0.0490,0.2664,0.5932,-0.9334,-0.0724,-2.6123,-0.1083,0.1739,-0.0875,901.1132,-19.1296,-21.3622,-50.8618,93206.5703,119.1088,-17.5326,12.6166,0.00000000,0.00000000,0.00000000,0.00000000,
1.047354,-0.0648,0.2509,0.4805,-2.4722,0.2293,-5.1869,0.0146,-0.8813,-0.3311,901.1066,-18.8734,-21.6916,-50.8740,93206.5703,120.0424,-16.9936,12.1978,0.00000000,0.00000000,0.00000000,0.00000000,
1.147821,0.0297,0.4792,0.7411,-2.1141,1.4408,-1.9235,0.2197,-0.0111,0.2737,901.3070,-21.8380,-22.1552,-49.1660,93206.5703,121.2888,-18.9555,15.9333,0.00000000,0.00000000,0.00000000,0.00000000,
1.247735,0.1626,0.4638,1.1471,-0.9892,1.4286,2.6364,-0.1087,-0.1355,0.6873,901.9554,-21.9966,-20.4350,-49.1050,93206.5703,119.1889,-20.0117,14.5502,0.00000000,0.00000000,0.00000000,960.79998779,
1.348078,0.3583,0.5744,2.1105,0.6857,3.8287,9.4228,-0.5170,0.1413,0.1185,901.8204,-22.2284,-17.2630,-49.5442,93206.5703,116.4471,-15.9987,14.5869,46.89628440,-114.03530460,0.00000000,960.79998779,
1.447857,0.1276,0.9604,1.4966,-0.6801,6.7324,4.0209,0.6928,-0.9628,0.2041,900.9576,-21.0450,-21.0450,-47.6532,93206.5703,113.5799,-22.5193,12.9353,46.89628440,-114.03530460,0.00000000,960.79998779,
1.548263,0.0418,0.3094,0.7663,-1.6074,0.0513,-1.1232,-1.4558,0.7636,0.3599,900.9111,-22.3992,-21.0084,-47.9582,93206.5703,111.8625,-22.8543,11.8323,46.89628440,-114.03530460,0.00000000,960.79998779,
1.648390,0.2225,-0.3655,0.1455,0.3769,-6.5739,-7.3036,1.3570,0.0456,0.3228,900.9446,-21.4110,-18.0926,-49.1538,93206.5703,109.4422,-18.9142,11.3006,46.89628440,-114.03530460,0.00000000,960.79998779,
1.748765,0.4756,-0.3042,0.3323,2.1616,-6.9773,-6.0688,0.4064,-0.2922,-0.5139,900.9531,-23.0946,-23.4118,-45.0546,93206.5703,110.7019,-26.5979,13.5527,46.89628440,-114.03530460,0.00000000,960.79998779,
1.848844,1.0586,0.7480,2.1745,7.3577,3.6349,10.8023,-2.3818,-2.8049,-0.6950,901.0579,-26.8888,-24.7660,-42.2974,93206.5703,115.1284,-28.7206,19.1053,46.89628440,-114.03530460,0.00000000,960.79998779,
1.948997,0.0888,0.8009,0.3617,-3.5618,4.5806,-4.1796,-1.6355,-1.4995,-0.5058,901.1733,-33.2206,-18.8368,-41.7606,93206.5703,123.4326,-26.2042,27.4557,46.89628440,-114.03530460,0.00000000,960.79998779,
2.049342,-0.4740,0.4240,0.6557,-8.7810,0.6027,-2.0762,0.4539,0.6242,0.0183,901.0408,-30.0242,-17.6534,-45.2498,93206.5703,127.6005,-21.3634,19.2392,46.89628440,-114.03530460,0.00000000,960.79998779,
2.149457,0.0808,0.5828,2.0377,-2.4841,1.3359,10.8818,2.3830,1.5536,0.2847,901.0684,-31.0368,-20.9230,-43.7492,93206.5703,125.8934,-28.2110,17.5267,46.89628440,-114.03530460,0.00000000,960.79998779,
2.249573,1.1187,0.4238,1.7332,9.0827,-0.5023,11.8083,0.8950,1.3944,1.1913,901.1563,-29.1092,-27.6208,-40.8822,52458.4258,114.8009,-40.6547,13.8224,46.89628440,-114.03530460,0.00000000,960.79998779,
2.350313,0.2262,-0.5676,0.6281,0.3968,-9.5793,-4.0721,-1.3251,-1.1601,1.3218,901.1367,-24.9978,-21.0206,-48.3608,52458.4258,100.8617,-30.9610,9.5825,46.89628440,-114.03530460,0.00000000,960.79998779,
2.450411,0.7879,-0.2139,-0.3716,4.1607,-4.8329,-12.1615,0.4809,-0.5253,-0.4849,901.0842,-29.4508,-21.1548,-45.1522,52458.4258,94.6236,-21.4346,19.5426,46.89628440,-114.03530460,0.00000000,960.79998779,
2.551191,1.2444,0.2215,1.8674,6.3043,-0.4755,5.9211,-2.4184,-2.6620,-1.6874,901.2153,-28.2186,-22.3138,-46.0428,52458.4258,105.1965,-18.1279,23.0524,46.89628440,-114.03530460,0.00000000,960.79998779,
2.650582,-0.1483,0.9651,0.3775,-8.1194,7.5369,-3.3533,-1.4481,-1.6972,0.1428,901.2095,-37.0758,-17.8730,-41.5898,52458.4258,117.8822,-14.6256,38.6119,46.89628440,-114.03530460,0.00000000,960.79998779,
2.750759,-0.6557,0.4862,0.9715,-12.4187,1.8004,0.7110,0.4608,0.0404,0.0410,901.1931,-35.9412,-16.4090,-43.4686,52458.4258,128.0389,-19.8240,30.5725,46.89628440,-114.03530460,0.00000000,960.79998779,
2.851082,-0.0251,0.6318,2.0553,-4.0238,2.1023,13.3281,3.4287,3.5160,-0.3572,901.2347,-34.7334,-23.3874,-41.6630,52458.4258,127.5261,-29.4617,27.6113,46.89628440,-114.03530460,0.00000000,960.79998779,
2.952200,0.7706,-0.1985,1.6188,5.7677,-6.6408,10.0725,-1.1660,2.9755,0.5352,901.2934,-29.9754,-28.9018,-40.6992,52458.4258,115.2327,-37.3436,20.2724,46.89628440,-114.03530460,0.00000000,960.79998779,
3.052316,0.3192,-0.5668,0.7641,-0.2575,-8.2970,-1.3437,0.5248,-1.9876,1.8056,901.1550,-28.8286,-20.9596,-47.9094,52458.4258,101.8642,-17.8380,19.3410,46.89628440,-114.03530460,0.00000000,960.79998779,
3.152779,0.6214,-0.3304,-0.3093,1.6850,-5.5889,-11.8176,-1.3259,-0.7258,-0.8519,901.1100,-35.5386,-20.1056,-42.4194,52458.4258,98.2398,-19.7087,27.8320,46.89628440,-114.03530460,0.00000000,959.32171631,
3.253036,1.7590,0.2953,1.4197,11.5648,0.7883,4.5618,-2.0108,-2.6109,-1.1624,901.1635,-36.3682,-20.1544,-40.6016,52458.4258,107.9798,-15.7771,32.4011,46.89650290,-114.03491200,3.36128950,959.32171631,
3.353224,-0.1580,0.9108,0.3520,-9.1683,7.9287,-2.6310,-1.0755,-1.6817,0.2248,901.2727,-42.0290,-16.1284,-37.8932,52458.4258,120.0404,-13.8821,42.7862,46.89650290,-114.03491200,3.36128950,959.32171631,
3.453305,-0.3614,0.6557,0.6352,-7.2059,1.5333,-2.2884,0.3719,1.7799,-0.1465,901.2047,-41.1018,-15.8844,-40.0160,52458.4258,134.1570,-34.4408,18.1677,46.89650290,-114.03491200,3.36128950,959.32171631,
3.553663,0.4249,0.7247,1.9451,2.8304,0.7480,12.1562,3.1774,3.2245,-0.7411,901.2751,-38.4178,-21.1548,-38.4910,52458.4258,131.9908,-43.7636,10.7879,46.89650290,-114.03491200,3.36128950,959.32171631,
3.654093,0.9513,-0.2354,1.5653,9.6809,-9.4322,9.4529,-0.3966,1.3048,1.3893,901.3177,-28.8408,-24.6318,-43.9810,52458.4258,113.7082,-49.9723,1.3586,46.89650290,-114.03491200,3.36128950,959.32171631,
3.754390,0.3986,-0.3703,0.6087,3.4701,-10.0641,-0.9803,1.6092,-1.0627,2.0816,901.1900,-26.7180,-18.2878,-49.5442,52458.4258,102.8056,-43.5548,3.7308,46.89650290,-114.03491200,3.36128950,959.32171631,
3.854793,0.5875,-0.2160,0.7734,4.9168,-8.8122,-0.4500,-1.0224,0.0650,-1.3840,901.1426,-29.8290,-20.3252,-47.9826,52458.4258,99.0888,-49.5749,7.4530,46.89650290,-114.03491200,3.36128950,959.32171631,
3.955559,0.1108,1.0267,-0.0193,1.0899,1.6974,-3.8689,0.8723,-1.4496,-0.6027,901.2719,-28.6090,-26.1812,-44.9814,52458.4258,103.0122,-54.3947,5.5311,46.89650290,-114.03491200,3.36128950,959.32171631,
4.055900,0.0371,0.6522,0.2045,-1.2480,-0.9193,-2.5982,0.5432,1.3040,-0.1796,901.2278,-32.9278,-19.8982,-46.2502,52458.4258,109.1596,-48.2794,11.8775,46.89650290,-114.03491200,3.36128950,959.32171631,
4.155891,0.1065,0.2891,0.7926,-0.0903,-3.5843,1.0418,-0.0443,1.4737,-1.0446,901.1236,-32.1836,-21.4598,-46.0916,52458.4258,111.1568,-47.8562,9.5668,46.89650290,-114.03491200,3.36128950,959.32171631,
4.256149,-0.1087,0.4948,2.3367,-0.2657,-1.9298,17.5313,2.1048,1.2556,-1.3044,901.2275,-27.7550,-30.2682,-43.4076,52458.4258,113.0136,-53.6227,2.8770,46.89650290,-114.03491200,3.36128950,959.32171631,
4.356671,0.3374,0.0468,1.3124,2.1714,-6.1051,7.6598,-1.3772,-0.5661,2.8826,901.0793,-27.9502,-28.9384,-44.3226,52458.4258,103.5457,-56.0283,4.6317,46.89650290,-114.03491200,3.36128950,959.32171631,
4.457202,0.3057,-0.1556,0.3091,0.6115,-8.3803,-2.7181,0.2104,0.0795,1.0161,901.1109,-36.3194,-20.0080,-43.0416,41092.0273,97.5257,-51.0366,18.6893,46.89650290,-114.03491200,3.36128950,959.07379150,
4.557275,0.6305,-0.1883,-0.0518,3.0054,-9.0875,-6.9881,0.0463,0.5459,-0.9900,901.1608,-33.9770,-21.6916,-43.7492,41092.0273,90.0289,-52.6683,17.4848,46.89645070,-114.03483980,4.89317226,959.07379150,
4.657793,2.2236,0.6941,2.3637,20.7240,0.1831,17.7601,-1.3592,-2.5801,-1.9714,901.1407,-36.4292,-27.3402,-38.3690,41092.0273,101.5406,-54.2722,16.6955,46.89645070,-114.03483980,4.89317226,959.07379150,
4.757772,-0.5013,0.5711,0.4349,-6.6704,-1.4077,-1.1113,0.4403,-1.9768,-0.4862,901.1151,-39.2474,-28.0966,-33.0620,41092.0273,116.8847,-54.6556,13.1491,46.89645070,-114.03483980,4.89317226,959.07379150,
4.858379,-0.5978,0.3591,0.2523,-7.5891,-4.4442,-3.7497,0.3308,0.5449,-0.5779,901.1445,-36.7220,-31.8176,-31.2808,41092.0273,118.0189,-58.6502,9.2782,46.89645070,-114.03483980,4.89317226,959.07379150,
4.958685,-0.0377,1.6572,1.6469,0.1564,7.3457,10.0391,0.6430,3.7437,-0.2034,901.1363,-30.6464,-37.3076,-31.3906,41092.0273,111.8741,-60.6258,-0.4120,46.89645070,-114.03483980,4.89317226,959.07379150,
5.058840,0.3567,-0.0840,0.3088,4.8350,-8.2441,-0.8324,0.2233,1.5112,2.4500,901.1728,-29.3288,-35.2458,-36.0022,9592.8408,96.0210,-63.2256,1.2908,46.89645070,-114.03483980,4.89317226,959.07379150,
5.159172,0.1806,-0.3954,-0.8954,-0.4062,-12.8739,-11.5722,1.4663,1.9491,1.8948,901.2198,-37.7224,-28.6456,-31.9274,9592.8408,85.5608,-72.0705,16.9925,46.89645070,-114.03483980,4.89317226,959.07379150,
5.259539,2.1039,-0.1319,1.2459,14.2005,-9.2835,7.7063,-1.5684,-1.3284,-1.5631,901.2265,-39.0644,-25.8762,-33.1108,9592.8408,81.5329,-72.9794,28.9197,46.89645070,-114.03483980,4.89317226,959.07379150,
5.359781,0.5176,1.0676,1.1684,6.0578,2.3281,10.6956,-3.1547,-0.7016,-2.5977,901.2288,-40.3942,-28.9750,-29.5850,9592.8408,98.7795,-68.9160,22.9159,46.89645070,-114.03483980,4.89317226,959.07379150,
5.459902,-0.5060,0.3274,-0.0902,-7.6424,-4.5375,-5.4343,-0.8914,-0.9753,-1.4733,901.1744,-40.0282,-29.4752,-28.7432,9592.8408,109.9591,-64.5381,19.4417,46.89645070,-114.03483980,4.89317226,959.14892578,
5.560104,0.1603,0.5814,1.0882,-0.7409,-2.4293,4.5607,-0.0212,0.9538,-0.9471,901.1751,-36.0632,-32.4520,-29.8168,9592.8408,113.0171,-56.6451,10.5263,46.89642090,-114.03479270,4.99792337,959.14892578,
5.660380,0.8443,1.2078,2.3210,4.5845,3.2565,16.6460,3.6633,1.0780,1.6287,901.2175,-29.1214,-38.4422,-32.0738,9592.8408,104.5806,-61.2474,1.0847,46.89642090,-114.03479270,4.99792337,959.14892578,
5.761022,0.4933,-0.3558,0.3037,2.4320,-10.8361,-1.7608,0.1937,0.8932,2.2201,901.2078,-31.5980,-36.7220,-29.1336,9592.8408,88.5886,-69.7250,14.5679,46.89642090,-114.03479270,4.99792337,959.14892578,
5.861428,0.1925,-0.5843,-0.6191,-3.8930,-12.5455,-9.1798,-0.9037,0.4989,-0.2455,901.2396,-36.4048,-35.3556,-26.0836,9592.8408,87.8455,-76.6764,40.3765,46.89642090,-114.03479270,4.99792337,959.14892578,
5.962022,1.4459,-0.1684,0.7423,5.7971,-9.1185,0.4063,-3.7448,-0.7311,-1.6078,901.1923,-35.3922,-34.3308,-31.1588,9592.8408,88.6664,-67.8238,38.6737,46.89642090,-114.03479270,4.99792337,959.14892578,
6.062451,2.2147,0.8278,2.3154,14.5197,2.0288,11.8569,-4.3773,-4.9627,-2.0129,901.1896,-30.5854,-35.0384,-37.2710,9592.8408,102.0052,-60.3196,30.4961,46.89642090,-114.03479270,4.99792337,959.14892578,
6.162896,-0.2395,0.3487,0.1029,-7.1762,-3.7974,-2.6745,0.3412,-2.8706,-0.9921,901.2307,-29.5728,-31.6346,-42.7000,9592.8408,117.0790,-51.6428,25.5943,46.89642090,-114.03479270,4.99792337,959.14892578,
6.262959,-0.2285,0.6567,1.1528,-5.6485,-1.0130,4.7205,0.3118,0.9456,-0.8734,901.2206,-28.2552,-31.9518,-42.5048,10940.5225,122.3696,-51.5499,23.3265,46.89642090,-114.03479270,4.99792337,959.14892578,
6.363224,1.6134,0.8971,2.0663,4.2390,2.4572,12.2649,1.6836,0.7923,3.5727,901.3676,-23.0214,-38.7106,-37.3320,22832.0039,108.5183,-58.3418,17.6083,46.89642090,-114.03479270,4.99792337,959.14892578,
6.463672,0.8333,-0.4421,0.0086,3.0398,-11.9262,-4.9611,0.3916,-1.7886,2.5654,901.3272,-28.6822,-36.6488,-36.3682,22832.0039,92.3368,-56.9175,25.6847,46.89642090,-114.03479270,4.99792337,959.14892578,
6.564108,0.2538,-0.5071,-0.0973,-3.1063,-11.4170,-4.4707,-0.7222,0.3010,-0.7281,901.2534,-37.2344,-33.0864,-32.4886,22832.0039,89.9888,-58.0760,38.0418,46.89642090,-114.03479270,4.99792337,959.14892578,
6.664400,0.9035,-0.2396,1.0008,2.7910,-8.9515,3.4350,-2.6018,-0.3722,-2.4618,901.2128,-33.9648,-34.2698,-36.3682,22832.0039,90.4891,-50.8544,33.8371,46.89642090,-114.03479270,4.99792337,959.02600098,
6.765141,1.4232,0.8569,2.3397,11.4711,2.1951,17.6099,-2.4990,-1.8372,-2.7925,901.2672,-25.1198,-36.7830,-39.6988,22832.0039,101.5980,-48.0728,24.6063,46.89638660,-114.03475040,4.26644611,959.02600098,
6.865070,-0.1142,0.5402,-0.0119,-3.6037,-0.8256,-6.8215,-0.7865,-1.0984,-1.0003,901.2695,-18.7148,-33.7818,-47.2994,22832.0039,109.2409,-40.1015,14.5371,46.89638660,-114.03475040,4.26644611,959.02600098,
6.965532,-0.0858,0.5131,0.4527,-2.2917,-1.3025,-3.3196,-0.0675,0.0502,-0.8941,901.2115,-12.7124,-30.9392,-51.3986,65516.3438,111.4265,-35.9301,9.4559,46.89638660,-114.03475040,4.26644611,959.02600098,
7.066180,0.0743,0.8532,2.0160,1.1655,1.4660,12.1805,1.8860,2.7559,0.0652,901.2261,-8.1740,-33.4402,-49.3856,65516.3438,111.0721,-39.6394,3.7137,46.89638660,-114.03475040,4.26644611,959.02600098,
7.166311,0.5215,0.2630,1.2077,6.1608,-4.0112,7.8454,0.2563,1.9747,1.8521,901.3160,-9.1500,-39.1742,-42.5414,65516.3438,95.6134,-48.0053,5.9638,46.89638660,-114.03475040,4.26644611,959.02600098,
7.266621,0.1834,-0.4781,-0.3843,-1.2794,-12.3212,-7.6618,2.6970,-0.5095,2.2139,901.3440,-20.5814,-39.4670,-37.2588,65516.3438,84.3413,-50.4925,18.4974,46.89638660,-114.03475040,4.26644611,959.02600098,
7.366867,1.3115,-0.5151,0.9548,7.0695,-12.6392,2.1698,-1.8656,-0.0122,-0.9950,901.3079,-19.0808,-37.8932,-40.3088,49733.9883,77.9445,-47.7285,18.7691,46.89638660,-114.03475040,4.26644611,959.02600098,
7.467183,1.5997,0.4391,1.7206,17.2329,-2.8905,13.8227,-1.7606,0.5415,-2.3067,901.3679,-13.8104,-31.3418,-47.2628,43887.5859,88.6774,-37.0489,14.7681,46.89638660,-114.03475040,4.26644611,959.02600098,
7.567719,-0.2949,0.5428,0.5543,-4.9864,0.2183,-1.2574,-1.1377,-1.7800,-0.9288,901.3093,-20.0812,-26.6326,-48.6658,43887.5859,102.7705,-35.5714,14.9399,46.89638660,-114.03475040,4.26644611,959.02600098,
7.668113,-0.3845,0.3963,0.7056,-5.4256,-1.3262,-1.7717,-1.0338,0.7943,-1.0899,901.2766,-16.6896,-22.8628,-52.1916,43887.5859,107.5480,-29.5095,11.2353,46.89638660,-114.03475040,4.26644611,959.02600098,
7.768305,0.1597,0.6964,1.9719,1.8466,1.3969,10.8839,2.1260,2.1218,0.6463,901.3012,-7.1736,-26.2544,-52.5820,43887.5859,106.8922,-31.8066,-1.4936,46.89638660,-114.03475040,4.26644611,958.81457520,
7.868678,0.1871,-0.1764,0.4362,3.9121,-7.2536,-1.9070,-0.2631,2.2796,1.6627,901.3018,-6.9784,-30.7440,-48.9952,43887.5859,93.3680,-38.9348,-1.9500,46.89634550,-114.03475940,4.75479174,958.81457520,
7.968948,0.1803,-0.2978,-0.9065,0.8491,-10.7052,-15.3641,0.6797,1.1030,0.9508,901.2568,-14.5546,-34.0380,-45.2132,43887.5859,83.5986,-54.5593,10.5729,46.89634550,-114.03475940,4.75479174,958.81457520,
8.069394,1.5593,-0.1918,1.4741,12.0513,-8.6801,5.8231,-0.9046,-0.7762,-2.5635,901.2404,-11.3704,-32.0860,-47.0920,43887.5859,78.4510,-50.2086,9.5191,46.89634550,-114.03475940,4.75479174,958.81457520,
8.169813,0.9773,0.3160,2.5736,12.9747,-5.5104,21.0171,-1.0913,-3.8270,-2.2038,901.2825,-8.9670,-30.4878,-48.7634,43887.5859,93.9761,-46.0319,3.0093,46.89634550,-114.03475940,4.75479174,958.81457520,
8.270281,-0.3870,0.4072,-0.0190,-4.6674,-2.3010,-6.8700,-1.0970,-2.0718,-0.8306,901.2307,-19.0808,-25.6444,-50.5568,43887.5859,109.2878,-43.3140,10.2151,46.89634550,-114.03475940,4.75479174,958.81457520,
8.370370,-0.1192,0.6561,0.9863,-2.5489,-0.3603,0.7353,-0.9228,-0.5640,-0.6023,901.1759,-22.2040,-22.7652,-50.1298,43887.5859,113.9860,-39.6810,11.8790,46.89634550,-114.03475940,4.75479174,958.81457520,
8.471352,0.0570,0.8609,2.2804,-0.7515,1.7047,15.1936,2.8371,2.9492,1.6713,901.2611,-14.3594,-27.4500,-51.6060,43887.5859,106.7791,-42.5184,2.9442,46.89634550,-114.03475940,4.75479174,958.81457520,
8.571960,0.1577,-0.4972,-0.4964,1.9127,-11.7024,-5.6407,0.6843,0.3740,2.9716,901.5201,-15.5550,-31.5248,-47.2628,51794.0781,89.5425,-51.5819,8.0182,46.89634550,-114.03475940,4.75479174,958.81457520,
8.672193,0.2761,-0.8753,-0.7692,-1.4057,-16.3200,-13.8701,-1.1411,-1.6092,1.4668,901.3707,-29.7436,-29.5240,-41.0408,51794.0781,87.3795,-57.0145,26.3268,46.89634550,-114.03475940,4.75479174,958.72314453,
8.772975,1.1893,-0.2665,1.4975,5.1773,-8.1885,5.9642,-2.9968,-0.4337,-1.3616,901.3627,-34.9408,-20.6912,-43.4930,51794.0781,87.9812,-42.5938,38.7040,46.89631370,-114.03479850,4.56343412,958.72314453,
8.872829,1.0561,0.1127,2.0232,6.2572,-4.1286,16.1456,-0.7656,1.9060,-1.8298,901.3821,-36.4414,-19.2028,-43.1270,91831.3828,99.7394,-38.9305,37.9423,46.89631370,-114.03479850,4.56343412,958.72314453,
8.972958,-0.3377,0.8811,0.0276,-6.9872,0.7331,-6.9267,-1.5041,-0.8593,-0.3638,901.2357,-36.7952,-16.2382,-43.8834,82766.8516,110.5382,-49.6446,27.4557,46.89631370,-114.03479850,4.56343412,958.72314453,
9.072970,-0.2289,0.7766,1.8655,-3.9527,0.5241,11.7857,1.0412,2.2431,-1.3269,901.2867,-32.6350,-17.0556,-47.9704,82766.8516,112.5173,-51.2450,16.6683,46.89631370,-114.03479850,4.56343412,958.72314453,
9.173585,1.6998,0.0208,3.1389,11.3984,-6.6621,25.9528,4.6157,2.5663,3.2256,901.2953,-19.7640,-30.4878,-46.3478,74788.9531,93.1391,-65.0014,7.0731,46.89631370,-114.03479850,4.56343412,958.72314453,
9.273958,0.1583,-0.7670,-0.1349,0.0591,-14.4786,-4.3410,1.8311,-0.7265,2.5616,901.3285,-23.1678,-35.0384,-40.2966,74788.9531,75.5698,-78.7467,21.6824,46.89631370,-114.03479850,4.56343412,958.72314453,
9.374538,0.2272,-1.2471,0.5707,-3.3265,-19.4605,5.2037,-1.4324,-1.0063,-0.9292,901.3506,-29.5728,-33.4402,-36.2706,74788.9531,73.6607,-90.1336,39.6137,46.89631370,-114.03479850,4.56343412,958.72314453,
9.474678,3.1633,0.1724,2.0245,25.1382,-6.7871,21.1429,0.6212,-0.2608,-0.1556,901.3065,-29.8168,-33.9404,-36.9172,69074.2344,74.6798,-86.1170,36.6280,46.89631370,-114.03479850,4.56343412,958.72314453,
9.574786,-0.3838,0.6521,0.5717,-7.3203,-2.2031,3.7237,-1.3660,-4.4927,0.5569,901.3260,-32.8668,-27.8282,-40.4308,69074.2344,85.8845,-75.7757,28.3922,46.89631370,-114.03479850,4.56343412,958.72314453,
9.676140,-0.5060,0.5861,0.7390,-5.7047,-2.8510,2.7039,-0.1715,-0.6437,-0.5943,901.2672,-37.7224,-23.1800,-38.3446,69074.2344,94.3695,-67.2188,10.7118,46.89631370,-114.03479850,4.56343412,958.64508057,
9.776990,-0.4713,1.2534,1.6009,-4.4844,3.0841,12.0875,2.4440,1.9113,-0.4966,901.1829,-32.7448,-29.7680,-36.9904,97308.9688,89.6283,-73.8466,5.1087,46.89627940,-114.03484900,5.19240999,958.64508057,
9.877048,0.8142,-0.1723,1.1881,8.7768,-10.6984,11.9825,1.9190,2.6174,2.0885,901.2811,-23.0092,-37.8688,-35.8192,97308.9688,66.3815,-89.5184,3.7525,46.89627940,-114.03484900,5.19240999,958.64508057,
9.977329,0.4925,-0.8166,-0.3736,1.3251,-16.6508,-0.8864,1.5161,-0.4427,1.9265,901.3090,-32.0738,-35.3312,-29.8290,76342.5703,65.2053,-103.0229,36.3680,46.89627940,-114.03484900,5.19240999,958.64508057,
10.077723,0.7973,-0.8109,0.6129,-0.0538,-14.4868,6.8337,-2.4486,-0.9872,-0.9974,901.3104,-35.0750,-32.4276,-28.6578,76342.5703,75.2949,-117.0187,50.9389,46.89627940,-114.03484900,5.19240999,958.64508057,
10.178228,3.4049,0.4073,4.4376,29.0245,-2.8598,44.4802,-1.2192,-2.8573,-0.7687,901.3145,-35.9534,-30.2926,-32.5252,76342.5703,77.9430,-106.0893,44.5589,46.89627940,-114.03484900,5.19240999,958.64508057,
10.278495,-0.5070,0.9248,0.0109,-12.0985,0.3066,0.4279,-0.9073,-2.9887,0.8956,901.1899,-37.1734,-27.0718,-34.4284,76342.5703,84.8602,-104.6789,38.1193,46.89627940,-114.03484900,5.19240999,958.64508057,
10.378918,-0.1525,0.7738,0.8749,-5.4358,-1.0209,9.4044,0.2239,-0.1717,-0.9999,901.1377,-39.2962,-25.5102,-31.8176,76342.5703,89.7079,-101.4025,30.5602,46.89627940,-114.03484900,5.19240999,958.64508057,
10.479117,0.6013,0.9109,1.7828,2.0398,0.5070,19.7787,3.3381,2.7017,-0.8058,901.1395,-35.1604,-33.6110,-28.0600,76342.5703,81.3929,-109.1412,27.1188,46.89627940,-114.03484900,5.19240999,958.64508057,
10.579764,1.4337,-0.2265,1.0697,13.4196,-8.2089,17.9319,2.3645,2.3694,1.4427,901.3055,-33.7208,-38.0640,-25.0100,76342.5703,66.8002,-117.6507,36.2453,46.89627940,-114.03484900,5.19240999,958.64508057,
10.680147,0.5060,-0.8915,-0.9548,-1.6966,-13.5198,-4.1982,1.6406,-0.2494,1.4939,901.2676,-40.7480,-33.1840,-17.8120,76342.5703,74.1710,-138.2830,50.1235,46.89627940,-114.03484900,5.19240999,958.60607910,
10.780421,0.9504,-0.5832,0.6658,3.3320,-10.6983,12.1437,-2.1058,-2.2683,-0.1188,901.2121,-42.8220,-32.2690,-10.5408,76342.5703,85.2163,-145.7561,42.5142,46.89623370,-114.03488210,5.45581627,958.60607910,
10.880926,2.7526,0.2550,3.1973,22.1431,-3.4131,34.3337,-5.3381,-4.4925,-1.7434,901.2302,-43.1270,-32.8180,-13.6396,10125.2998,87.0743,-134.3110,36.3313,46.89623370,-114.03488210,5.45581627,958.60607910,
10.982356,-0.2990,1.0900,0.5424,-6.5671,1.1325,7.0834,-1.6227,-1.0970,0.6248,901.1669,-39.6134,-31.2808,-25.0832,10125.2998,81.9041,-106.8352,25.4797,46.89623370,-114.03488210,5.45581627,958.60607910,
11.082334,0.0542,0.9578,1.1642,-2.4434,1.0163,13.0917,2.3134,1.1397,-1.2541,901.0664,-38.2226,-31.8664,-25.1198,22428.3555,79.1172,-105.9562,24.0496,46.89623370,-114.03488210,5.45581627,958.60607910,
11.182982,0.9369,0.7875,2.3813,3.6309,0.1088,25.9182,2.8862,4.5745,1.4259,901.1647,-32.1348,-39.7354,-20.7278,25785.3379,58.5283,-116.9529,27.1382,46.89623370,-114.03488210,5.45581627,958.60607910,
11.283386,1.0644,-0.6941,0.1191,3.9680,-12.0002,5.7880,2.2788,-0.1121,3.3847,901.2283,-37.2344,-36.9538,-18.8002,25785.3379,48.4555,-128.7495,48.0805,46.89623370,-114.03488210,5.45581627,958.60607910,
11.383759,0.5427,-0.8382,-0.6445,-1.9204,-10.9743,-1.2748,-0.1470,-0.8518,0.4981,901.1981,-45.9330,-26.5838,-11.7364,25785.3379,68.5042,-156.5253,55.4705,46.89623370,-114.03488210,5.45581627,958.60607910,
11.484001,0.7910,-0.4241,0.8412,1.6051,-7.8185,14.3086,-2.0911,-0.1554,-1.1600,901.1708,-46.7016,-28.7920,-8.0764,25785.3379,70.9832,-152.8999,48.0182,46.89623370,-114.03488210,5.45581627,958.60607910,
11.584320,1.5784,0.4009,3.5251,11.7916,-2.8644,43.4685,-3.0134,1.2223,-1.1377,901.1512,-44.2250,-31.6102,-11.5778,25785.3379,67.5599,-133.0681,42.4368,46.89623370,-114.03488210,5.45581627,958.61364746,
11.684389,-0.0248,0.9616,0.2924,-5.7876,1.5927,5.9029,-0.6348,-0.6173,0.6226,901.1209,-42.0412,-31.4760,-21.6794,25785.3379,58.4565,-114.2063,39.4617,46.89618510,-114.03488020,5.24185133,958.61364746,
11.785138,-0.3549,0.8742,0.8445,-8.6126,1.7208,11.7281,3.3842,0.9795,-0.5364,901.0929,-41.5654,-32.3788,-18.6294,25785.3379,56.0947,-117.2429,38.1501,46.89618510,-114.03488020,5.24185133,958.61364746,
11.885172,0.8610,0.5817,2.7928,-0.2262,0.3133,28.2135,1.6525,4.0197,1.7959,901.1625,-39.3084,-36.2706,-14.8352,25785.3379,34.0930,-122.7919,46.5986,46.89618510,-114.03488020,5.24185133,958.61364746,
11.985274,0.7343,-0.6916,0.1637,-1.1877,-9.2963,5.3420,2.9662,0.9835,2.9835,901.2790,-44.6886,-28.4870,-17.9584,25785.3379,24.9841,-131.6140,70.6028,46.89618510,-114.03488020,5.24185133,958.61364746,
12.085426,0.8135,-0.8302,-0.5172,0.0531,-2.2769,-4.1804,0.0409,-0.6721,0.0250,901.1851,-49.9102,-19.6176,-13.2004,25785.3379,142.6132,97.8831,56.3299,46.89618510,-114.03488020,5.24185133,958.61364746,
12.185852,0.7879,-0.4824,0.7321,-0.6441,0.1101,8.2438,-1.9080,-0.5430,-1.0003,901.2108,-48.7390,-22.7896,-13.5176,25785.3379,138.5351,103.3564,58.4873,46.89618510,-114.03488020,5.24185133,958.61364746,
12.285817,1.2029,0.1362,1.8660,6.9127,5.6374,25.7598,-3.3660,1.2292,-0.9855,901.1281,-49.1904,-24.4366,-10.4798,25785.3379,117.1968,137.0531,55.0278,46.89618510,-114.03488020,5.24185133,958.61364746,
12.386245,-0.0124,1.0531,0.4231,-7.5694,12.6488,9.1405,-1.3343,-1.9646,0.5983,901.1709,-50.1786,-20.3130,-9.8210,25785.3379,110.4137,149.1874,52.6325,46.89618510,-114.03488020,5.24185133,958.61364746,
12.486304,0.0512,1.4582,1.7402,-7.3944,17.4002,22.9932,2.5656,1.9235,-2.3883,901.1959,-49.0928,-20.6058,-7.0760,25785.3379,102.0830,156.1506,51.0219,46.89618510,-114.03488020,5.24185133,958.61364746,
12.586345,3.7514,0.1348,4.6044,22.9334,3.2996,45.6891,6.3751,4.2568,2.3268,901.3702,-44.5666,-30.9148,-11.8706,25785.3379,130.9982,103.8178,74.6927,46.89618510,-114.03488020,5.24185133,958.61364746,
12.686389,0.7151,-0.8724,-1.0584,-1.3035,-4.8908,-14.0722,3.4512,-0.3576,5.0478,901.3915,-49.0318,-20.2764,-14.1764,25785.3379,164.9420,40.2009,51.8807,46.89618510,-114.03488020,5.24185133,958.56585693,
12.787692,0.5809,-1.1759,-0.2885,-1.5470,-5.1080,-6.6800,-0.8709,-0.9971,1.1224,901.2310,-53.3506,-7.0394,-10.6750,25785.3379,138.4074,58.4012,43.0059,46.89614200,-114.03484120,5.15338850,958.56585693,
12.887497,0.3677,-0.4379,0.4372,-2.7820,2.3062,2.4032,-3.2870,-0.4233,-1.0996,901.2053,-53.5946,-7.4664,-7.6128,3979.2075,129.6545,76.5876,45.7809,46.89614200,-114.03484120,5.15338850,958.56585693,
12.988972,2.8402,0.5415,4.0270,18.8791,11.6264,31.1234,-3.4123,-2.1634,-1.3553,901.1836,-52.5698,-11.9804,-5.5144,4403.4873,125.6005,93.6391,51.1956,46.89614200,-114.03484120,5.15338850,958.56585693,
13.088390,-0.2067,0.4213,0.5332,-10.8559,8.6443,6.3742,-0.5098,-1.4872,0.0863,901.2310,-50.4348,-17.9218,-12.6148,4760.6724,125.6780,103.2066,59.2741,46.89614200,-114.03484120,5.15338850,958.56585693,
13.188690,-0.4056,0.7525,0.2603,-12.0657,10.0910,2.4142,1.4378,0.1855,-0.6239,901.1446,-50.0444,-18.2268,-11.1386,4760.6724,116.3021,109.7574,74.4161,46.89614200,-114.03484120,5.15338850,958.56585693,
13.289908,-0.9437,0.8266,1.9923,-18.4390,9.2045,14.9556,4.1809,3.2027,-0.1323,901.1358,-48.5560,-21.4354,-10.2846,4760.6724,167.4667,42.7908,81.1325,46.89614200,-114.03484120,5.15338850,958.56585693,
13.390194,1.2771,0.4440,2.9475,9.7815,10.3958,27.1842,3.9432,5.3883,1.3248,901.2875,-48.2754,-19.8494,-20.5448,4760.6724,176.5969,2.7905,51.8559,46.89614200,-114.03484120,5.15338850,958.56585693,
13.490442,-0.2382,-2.0105,0.0299,-7.2051,-20.1560,-4.9531,2.1168,1.7690,1.2295,901.3661,-48.3364,-16.7750,-21.6184,4760.6724,159.6057,-6.9223,41.9863,46.89614200,-114.03484120,5.15338850,958.56585693,
13.590829,0.7701,-1.2829,0.5595,-1.7652,-13.9184,-2.2157,-3.7425,-0.4084,1.7174,901.3094,-50.4592,-7.9788,-23.8876,4760.6724,145.5357,7.1996,39.8301,46.89614200,-114.03484120,5.15338850,958.56585693,
13.691319,1.8827,0.0871,-0.0539,9.0684,3.7115,-2.3387,-2.9531,-1.5576,-0.1041,901.2283,-50.7154,0.2684,-26.7302,4760.6724,143.6167,32.1538,38.3132,46.89614200,-114.03484120,5.15338850,958.54901123,
13.791615,-0.0726,1.3451,0.2607,-5.5286,17.9594,-0.3740,-2.3974,-0.1003,-0.1792,901.2823,-52.0208,5.4290,-22.1064,4760.6724,142.4811,57.1085,45.9054,46.89612520,-114.03477820,4.30731773,958.54901123,
13.892052,-1.7912,1.4155,1.4887,-23.7997,22.1496,7.9142,0.6803,3.1395,-2.1522,901.2581,-51.0204,5.6486,-25.7176,4760.6724,146.3066,56.5017,46.8805,46.89612520,-114.03477820,4.30731773,958.54901123,
13.992393,3.5061,2.1583,4.7896,24.7913,23.6792,36.3093,5.7605,1.1716,0.3041,901.3476,-47.6044,-7.2712,-31.5370,4760.6724,157.0852,20.4448,36.7495,46.89612520,-114.03477820,4.30731773,958.54901123,
14.092714,1.1998,-1.0748,0.6322,8.8538,-12.3036,-1.3202,2.3351,1.6295,-0.1693,901.4105,-36.9050,-24.7660,-34.7944,6391.4688,164.2055,-11.1721,22.8019,46.89612520,-114.03477820,4.30731773,958.54901123,
14.193147,0.8976,-1.1600,-0.3018,4.1768,-14.3602,-9.9669,1.7052,-2.3906,1.9909,901.4043,-39.3938,-24.7782,-30.6342,9091.7158,156.3223,-15.8028,23.6136,46.89612520,-114.03477820,4.30731773,958.54901123,
14.293459,0.6105,-0.5068,-0.3161,-1.4845,-4.6682,-8.8101,-3.1418,-3.7641,1.0378,901.2799,-48.8732,-15.9332,-22.7652,9091.7158,139.3163,4.5735,51.7435,46.89612520,-114.03477820,4.30731773,958.54901123,
14.393842,3.9129,1.6001,1.1639,24.6831,16.6396,5.7899,-5.6868,-4.7171,-0.2576,901.2314,-53.1554,-9.6624,-5.6608,9091.7158,101.8301,61.6697,71.7985,46.89612520,-114.03477820,4.30731773,958.54901123,
14.493944,0.3965,0.1169,-0.0220,-4.8601,3.9236,2.3117,0.1508,-3.6439,0.0202,901.3055,-49.9102,-14.2252,1.6104,5821.3110,56.2438,120.0774,77.5642,46.89612520,-114.03477820,4.30731773,958.54901123,
14.594244,-1.2907,-0.7481,0.3531,-20.4185,-5.8300,5.8472,-3.7004,-1.3328,0.3844,901.3627,-47.2384,-16.7872,5.7584,5821.3110,32.8252,155.3164,69.3326,46.89612520,-114.03477820,4.30731773,958.54901123,
14.695017,-1.0303,1.6748,1.8021,-17.8328,18.7398,20.2761,-2.8113,2.7485,0.4856,901.3140,-49.3612,-10.3822,3.4160,5821.3110,53.7289,153.5440,62.2190,46.89612520,-114.03477820,4.30731773,958.43365479,
14.795341,1.6483,1.5946,2.3452,4.3789,17.4016,22.0927,0.7155,8.3995,1.0175,901.2982,-48.6170,-12.9686,-22.0332,5821.3110,151.4515,64.0597,77.6206,46.89615060,-114.03471010,3.43242502,958.43365479,
14.896150,1.9920,-1.3121,0.7833,12.6109,-9.2912,1.6590,3.0955,0.3237,2.3444,901.2656,-37.1978,-11.3704,-40.9798,5821.3110,185.0538,24.4679,48.4593,46.89615060,-114.03471010,3.43242502,958.43365479,
14.996048,1.1471,-0.9355,-1.0867,6.4496,-6.9000,-18.1761,0.2242,-0.0568,-1.0876,901.1766,-36.1608,-12.7368,-41.1262,5821.3110,173.2697,18.4949,39.9249,46.89615060,-114.03471010,3.43242502,958.43365479,
15.095942,0.7861,-0.5636,0.9725,-0.3927,-2.3606,3.1518,-2.0137,-2.1105,-1.6208,901.2368,-40.0648,-14.8840,-35.9656,14022.0723,168.9608,31.7273,54.2184,46.89615060,-114.03471010,3.43242502,958.43365479,
15.197417,-0.4249,-0.4974,3.8314,-4.6905,-1.8915,38.0315,-5.3236,-2.7760,-2.3119,901.1567,-47.3116,-14.0544,-24.3146,14022.0723,141.8503,70.0830,74.1788,46.89615060,-114.03471010,3.43242502,958.43365479,
15.296996,0.2347,0.6538,0.6532,-6.3454,9.8877,7.7425,-2.1549,-1.5738,0.5385,901.1063,-51.9354,-5.9048,-11.7120,11963.6934,94.5192,126.5005,65.2595,46.89615060,-114.03471010,3.43242502,958.43365479,
15.397295,-0.1650,1.2187,1.8300,-10.1464,14.6709,18.9107,0.4881,-0.1535,-1.8105,901.0922,-51.7524,-5.6486,-9.0524,6268.4937,88.4487,138.6284,68.6292,46.89615060,-114.03471010,3.43242502,958.43365479,
15.498359,2.0552,0.8501,4.8785,-5.0308,13.5311,31.7290,4.5281,1.6992,1.0193,901.1852,-51.5328,-11.3460,-16.6530,6268.4937,124.2389,86.8210,79.0816,46.89615060,-114.03471010,3.43242502,958.43365479,
15.598531,0.4761,-1.8728,-1.2717,-5.1832,-17.3732,-13.4810,3.6545,1.1959,5.2556,901.2592,-45.1644,-11.4924,-31.5736,6268.4937,162.1806,24.0182,54.7137,46.89615060,-114.03471010,3.43242502,958.43365479,
15.699081,0.7863,-0.9352,-0.5206,0.6999,-4.5154,-10.7229,-0.4914,-1.4340,1.6327,901.1357,-47.0310,3.8064,-29.4142,6268.4937,126.4955,39.5587,43.6346,46.89615060,-114.03471010,3.43242502,958.31719971,
15.799923,1.6363,-0.2652,1.0080,8.1080,2.5888,5.7720,-2.8131,-1.3140,-1.5429,901.1094,-49.2758,7.6128,-23.5460,6268.4937,122.0315,56.4499,47.7629,46.89617690,-114.03465700,2.82097459,958.31719971,
15.900300,1.5165,0.2858,2.3879,7.2968,6.7172,23.0389,-2.4677,0.4116,-3.2764,901.1285,-51.8500,-0.9638,-17.2996,6268.4937,123.8159,68.6335,63.0351,46.89617690,-114.03465700,2.82097459,958.31719971,
16.000625,-0.8078,0.9700,-0.4374,-16.9530,12.1412,-6.3248,0.7038,-1.0125,0.1333,901.1511,-48.7268,-4.0870,-20.8132,6268.4937,145.9551,51.6472,68.1024,46.89617690,-114.03465700,2.82097459,958.31719971,
16.101043,0.1851,1.1185,1.8400,-7.3823,13.2325,14.7245,2.0963,2.3901,-0.7891,901.1215,-46.7260,-5.8438,-23.6436,6268.4937,159.7779,37.8776,66.7223,46.89617690,-114.03465700,2.82097459,958.31719971,
16.201357,3.5798,0.3040,4.2640,28.1592,4.4913,36.9076,3.7854,2.7709,1.3480,901.1464,-40.4674,-11.4924,-28.2186,6268.4937,168.6845,10.9618,50.5649,46.89617690,-114.03465700,2.82097459,958.31719971,
16.301824,0.6004,-0.5651,-0.7737,0.7053,-5.7552,-14.5573,2.5224,-0.3311,2.0819,901.1818,-34.0990,-10.8946,-32.8058,6268.4937,154.3099,2.3281,37.0914,46.89617690,-114.03465700,2.82097459,958.31719971,
16.402013,0.0645,-0.3817,-0.2214,-6.7053,-2.9921,-9.2334,-0.2334,-0.3521,-0.3750,901.1079,-30.6586,-8.6376,-28.9506,7111.8438,144.7900,8.1072,44.4488,46.89617690,-114.03465700,2.82097459,958.31719971,
16.502524,0.9490,0.0400,1.6587,1.5853,1.2401,7.2394,-1.7194,0.9918,-2.0631,901.0222,-29.0848,-8.3814,-24.1804,7111.8438,157.0749,8.2197,45.4235,46.89617690,-114.03465700,2.82097459,958.31719971,
16.603006,0.6686,0.5381,2.8503,2.8646,4.4725,26.0591,-1.2555,1.5884,-0.3819,901.0660,-29.5484,-9.1012,-20.8986,7111.8438,177.4082,-2.0122,44.6448,46.89617690,-114.03465700,2.82097459,958.31719971,
16.703376,0.2396,1.0486,0.1051,-3.9129,5.7154,-4.8690,1.1288,-0.9043,-0.1959,901.1224,-31.4760,-7.0150,-16.0430,7111.8438,192.5582,-33.3760,43.6224,46.89617690,-114.03465700,2.82097459,958.36322021,
16.804465,0.5277,1.4051,2.0945,-1.6744,8.0376,13.8869,2.3700,-1.5690,2.0481,901.1960,-31.7566,-6.1000,-19.0930,7111.8438,185.3039,-39.1106,35.9085,46.89620120,-114.03460870,4.14753056,958.36322021,
16.904400,-0.1695,-0.2928,0.4696,-6.3585,-8.2318,-1.8581,-0.2599,0.3873,0.4574,901.0987,-28.6944,-6.9662,-24.4488,7111.8438,175.4254,-36.1911,31.7457,46.89620120,-114.03460870,4.14753056,958.36322021,
17.004609,0.9634,-0.1008,0.1957,1.5393,-3.8087,-2.8629,0.3718,-0.0575,0.0076,901.0559,-31.0002,-5.0752,-27.3524,7111.8438,156.3618,-31.1750,53.8187,46.89620120,-114.03460870,4.14753056,958.36322021,
17.104992,0.5125,-0.5421,0.2268,-3.3135,-7.7503,-2.0159,-1.5959,0.5353,-1.9837,901.2393,-29.8046,-8.3936,-30.5366,7111.8438,158.4515,-31.0189,57.9669,46.89620120,-114.03460870,4.14753056,958.36322021,
17.204955,0.5280,-0.1263,0.2744,-2.5355,-3.9091,-2.1462,0.0370,0.5433,-0.6469,901.3388,-27.9746,-11.4070,-36.2706,14214.7998,164.6682,-26.4181,50.0089,46.89620120,-114.03460870,4.14753056,958.36322021,
17.305621,1.2141,1.0229,0.8709,4.1767,8.1037,4.1160,-0.7350,-0.7332,-0.1694,901.4079,-31.4638,-7.9544,-37.1978,14214.7998,176.3144,-24.9343,54.9640,46.89620120,-114.03460870,4.14753056,958.36322021,
17.405771,0.0169,0.5998,0.6608,-7.7935,3.5268,1.9665,-2.3483,-2.3693,0.3269,901.3500,-38.2470,-1.4884,-29.4264,14214.7998,196.6356,-29.0891,55.0245,46.89620120,-114.03460870,4.14753056,958.36322021,
17.505996,-0.5014,0.8940,0.6517,-11.9893,6.3716,0.0232,-0.1513,0.3926,-0.9035,901.2546,-37.3198,1.3908,-32.7448,14214.7998,203.2387,-21.7729,44.7123,46.89620120,-114.03460870,4.14753056,958.36322021,
17.606522,0.6428,1.1036,3.0526,0.6375,6.4131,23.6695,5.5907,1.6100,-0.9922,901.3830,-35.3190,-7.5762,-39.1742,14214.7998,208.7289,-34.5790,35.1140,46.89620120,-114.03460870,4.14753056,958.36322021,
17.706942,1.0646,-0.1246,0.4525,6.4156,-8.1889,0.9047,3.7077,2.9376,0.1176,901.3875,-24.9246,-28.7920,-34.1478,14214.7998,197.0992,-60.0155,25.4951,46.89620120,-114.03460870,4.14753056,958.46801758,
17.807173,0.6138,-1.2309,0.4748,1.0843,-19.2435,0.6261,0.5027,-0.3413,1.2210,901.2300,-24.9490,-31.9762,-32.6472,14214.7998,189.6478,-63.3403,29.2386,46.89622450,-114.03455520,3.82278252,958.46801758,
17.907365,0.1180,-1.0803,-0.1261,-4.5273,-16.9339,-6.2617,-2.6994,-1.7866,1.2229,901.2017,-26.2666,-28.4138,-35.5142,14214.7998,185.9640,-55.0770,32.5098,46.89622450,-114.03455520,3.82278252,958.46801758,
18.007746,2.7441,-0.2605,2.1665,20.5349,-6.9150,16.4170,-5.3176,-2.9989,-2.0367,901.2270,-36.7830,-16.3358,-34.3308,14214.7998,201.1595,-42.8832,44.2609,46.89622450,-114.03455520,3.82278252,958.46801758,
18.107774,-0.4739,0.6779,2.1203,-12.5757,3.3101,18.2236,-5.1287,-4.8702,-1.2165,901.4459,-45.7500,-8.4546,-22.2406,14214.7998,248.1839,-49.7467,60.6154,46.89622450,-114.03455520,3.82278252,958.46801758,
18.208345,-1.1426,0.8149,0.4231,-20.1077,4.7353,2.1140,-3.2396,-0.1702,-1.0510,901.2541,-46.4820,-5.3802,-14.6034,11798.5693,283.2337,-58.0738,66.8249,46.89622450,-114.03455520,3.82278252,958.46801758,
18.308226,1.6693,2.0294,2.1097,7.7778,15.9664,17.7349,0.9670,1.0321,-2.2758,901.1758,-46.6894,-11.5168,-18.8246,3638.4211,290.3357,-48.1953,58.1755,46.89622450,-114.03455520,3.82278252,958.46801758,
18.408760,2.6254,1.2355,3.0471,19.6111,5.9385,25.7228,4.1340,1.7994,-0.9912,901.2785,-37.8566,-27.2670,-25.7298,4776.4399,288.4731,-57.3872,35.6596,46.89622450,-114.03455520,3.82278252,958.46801758,
18.508814,-0.1508,-0.9208,-0.9280,-6.1949,-16.4078,-13.1123,1.7428,0.4081,4.0998,901.3057,-29.2434,-30.9270,-30.6830,8118.7573,266.4014,-59.3096,28.4357,46.89622450,-114.03455520,3.82278252,958.46801758,
18.609470,0.7032,-0.4074,-0.5970,-2.4769,-7.2240,-6.8332,-1.6723,0.8425,1.2051,901.1661,-40.0526,-21.2646,-29.7802,8118.7573,269.7371,-69.7933,67.4794,46.89622450,-114.03455520,3.82278252,958.46801758,
18.709463,2.2542,-0.0938,2.3859,12.5385,-3.1549,24.4888,-2.0642,-1.0463,-1.7632,901.1976,-42.1998,-16.6530,-30.7928,8118.7573,316.6945,-101.3083,73.3017,46.89622450,-114.03455520,3.82278252,958.53265381,
18.810056,-0.3151,0.8757,0.7175,-11.1130,4.3672,8.5848,-1.3253,-1.3920,-1.1331,901.3209,-40.8578,-18.6416,-32.2446,9025.5068,327.2892,-96.9360,61.4890,46.89623270,-114.03452030,2.18209839,958.53265381,
18.910428,-0.4521,0.4231,0.0051,-11.1158,-2.4858,1.2611,-0.2314,-0.0789,-1.5960,901.1553,-40.3576,-21.1304,-30.9392,12514.8076,337.6253,-94.7916,44.9058,46.89623270,-114.03452030,2.18209839,958.53265381,
19.010725,-0.1611,0.9058,1.2833,-7.2398,0.8580,10.8362,0.9153,0.2121,-1.3806,901.1443,-36.8074,-26.6448,-32.6228,12514.8076,336.9401,-90.9019,33.6571,46.89623270,-114.03452030,2.18209839,958.53265381,
19.111465,0.3658,1.2048,2.2654,-3.4076,3.6835,22.1006,2.3556,2.9565,0.8255,901.2336,-28.9384,-35.2092,-31.5492,12514.8076,324.9136,-95.3098,28.4603,46.89623270,-114.03452030,2.18209839,958.53265381,
19.211722,0.1612,-0.3376,-0.4017,-4.4408,-9.5823,-2.1315,-0.2549,0.0842,3.1070,901.2601,-30.7318,-33.0620,-33.4890,12514.8076,312.0088,-93.6976,42.6056,46.89623270,-114.03452030,2.18209839,958.53265381,
19.311716,0.4741,-0.6013,-0.3816,-3.9396,-11.1353,-1.1934,0.0678,-0.2989,2.2140,901.1682,-42.7610,-22.8994,-28.8530,12514.8076,329.2503,-107.1246,58.4491,46.89623270,-114.03452030,2.18209839,958.53265381,
19.412464,1.3101,-0.3319,1.0949,1.7238,-7.9294,7.6421,-2.6504,-2.4927,-0.9025,901.1788,-46.2258,-17.0556,-29.1824,12514.8076,340.5987,-105.9882,61.2292,46.89623270,-114.03452030,2.18209839,958.53265381,
19.512992,2.0574,0.6177,2.7709,16.7209,0.6466,33.9309,-1.1955,-0.5716,-1.7034,901.3112,-47.1652,-19.1784,-24.8880,12514.8076,354.7205,-104.4100,51.4930,46.89623270,-114.03452030,2.18209839,958.53265381,
19.612884,-0.7311,0.5393,-0.2774,-9.4929,-3.5770,-1.1129,0.1360,-0.8194,-0.5643,901.2420,-43.8346,-20.9840,-28.1454,12514.8076,352.3312,-94.3041,15.2185,46.89623270,-114.03452030,2.18209839,958.62121582,
19.713018,-0.2004,1.1402,0.9125,-4.1691,0.2749,6.4636,-0.4886,0.9614,-1.3127,901.1413,-43.3344,-24.3146,-27.7184,12514.8076,356.2868,-93.0861,4.6698,46.89621740,-114.03449700,2.11135221,958.62121582,
19.813396,0.5540,1.6610,2.3943,4.5113,6.5811,25.2460,2.7497,3.7840,-0.2543,901.2546,-34.9042,-34.8798,-28.8408,12514.8076,344.3906,-101.9057,-2.3778,46.89621740,-114.03449700,2.11135221,958.62121582,
19.913737,0.5345,-0.6041,-0.2623,2.2033,-14.4108,2.0674,1.4940,0.0555,3.7576,901.3882,-28.6822,-36.2218,-33.4890,12514.8076,328.3126,-107.6121,7.5923,46.89621740,-114.03449700,2.11135221,958.62121582,
20.014261,0.4711,-0.8992,-0.9166,1.8541,-15.1966,-4.0240,-1.2058,-0.2692,0.8101,901.2256,-40.4186,-30.9758,-23.6924,12514.8076,343.8347,-122.2495,19.2814,46.89621740,-114.03449700,2.11135221,958.62121582,
20.114942,1.6589,-0.1943,1.7675,13.6273,-10.8822,20.6893,-2.9631,-0.0118,-1.4232,901.4167,-44.0786,-27.4378,-24.0950,12514.8076,353.6977,-109.6425,14.7260,46.89621740,-114.03449700,2.11135221,958.62121582,
20.214405,0.3627,1.2134,1.3443,5.3621,1.6129,16.7069,-2.9970,1.1734,-1.3035,901.5043,-41.5288,-26.8766,-28.1332,12514.8076,2.9537,-92.5653,4.9615,46.89621740,-114.03449700,2.11135221,958.62121582,
20.314775,-0.2874,0.5753,-0.0353,-2.1789,-3.8639,-0.5987,0.0093,0.0671,-0.4453,901.3117,-38.7106,-27.3158,-33.4768,12514.8076,4.3674,-80.9865,-4.1120,46.89621740,-114.03449700,2.11135221,958.62121582,
20.414934,-0.1152,0.7092,1.0495,0.4470,-2.4821,8.7045,1.3239,0.9129,-0.1131,901.3417,-36.3194,-29.5484,-34.1966,14420.5801,5.5232,-78.8863,-7.8383,46.89621740,-114.03449700,2.11135221,958.62121582,
20.515583,0.3211,1.0556,1.7669,3.4063,0.8503,18.6295,4.3007,1.9026,2.9283,901.6395,-34.1722,-33.9892,-29.4508,14420.5801,358.7541,-95.9108,-4.7856,46.89621740,-114.03449700,2.11135221,958.62121582,
20.615654,0.3431,-0.4375,0.4284,1.8221,-12.8067,7.3463,-0.6200,3.0322,0.7725,901.6387,-38.5154,-31.5492,-26.4862,14420.5801,353.8154,-105.5844,12.6870,46.89621740,-114.03449700,2.11135221,958.62121582,
20.716062,0.7181,-0.7235,-0.9571,2.6672,-14.4838,-5.0146,-0.6726,0.3821,-0.4475,901.2956,-39.5890,-29.4752,-26.4130,10454.9160,356.3099,-116.0125,26.6985,46.89621740,-114.03449700,2.11135221,958.58685303,
20.816052,1.3329,-0.1709,1.4580,8.8382,-13.2324,15.9306,-2.8990,0.0124,-1.3893,901.4366,-38.3446,-29.6826,-30.0364,10454.9160,358.1484,-102.6657,19.6643,46.89615420,-114.03444420,5.00410032,958.58685303,
20.916355,1.3804,0.7869,2.3874,12.5891,-1.5824,24.8365,-1.4928,-3.2719,-1.2365,901.5445,-39.7842,-28.2918,-30.5244,10454.9160,10.8042,-90.7929,12.1522,46.89615420,-114.03444420,5.00410032,958.58685303,
21.016858,-0.8920,0.6391,-0.1862,-7.2013,-3.1937,-1.8926,-0.0084,-1.9915,-1.6930,901.2070,-38.1372,-29.2190,-30.8782,10454.9160,20.3574,-88.0070,-5.8482,46.89615420,-114.03444420,5.00410032,958.58685303,
21.117083,0.3231,0.9497,1.2931,5.0376,-0.2050,13.1468,2.6630,0.9477,-0.5436,901.2566,-37.9786,-33.0010,-23.3508,10454.9160,27.7717,-90.4588,-10.1750,46.89615420,-114.03444420,5.00410032,958.58685303,
21.217450,2.2150,1.2590,2.0743,22.4817,4.0326,24.6685,2.7062,2.7559,2.1496,901.5781,-36.2706,-36.1730,-16.8726,8090.4785,18.3417,-112.3567,-5.0249,46.89615420,-114.03444420,5.00410032,958.58685303,
21.317616,0.6889,-0.7290,0.3919,3.9988,-14.8361,7.7432,0.9332,0.2545,2.1262,901.3292,-39.0034,-30.8538,-25.1808,8090.4785,8.2565,-114.9505,14.8913,46.89615420,-114.03444420,5.00410032,958.58685303,
21.417860,0.7714,-0.6272,-0.1929,1.3165,-11.5108,2.6446,-2.7573,0.5948,-1.2409,901.1112,-40.4064,-27.8160,-26.1446,8090.4785,13.2801,-126.2456,40.3818,46.89615420,-114.03444420,5.00410032,958.58685303,
21.517858,1.1984,0.2642,2.1038,4.9281,-3.7635,23.1043,-1.6815,-0.3880,-1.5335,901.2546,-36.0754,-27.7794,-34.0380,8090.4785,9.7616,-111.3726,45.6723,46.89615420,-114.03444420,5.00410032,958.58685303,
21.618301,-0.4707,1.0470,0.7139,-10.1443,3.4971,10.7759,-1.7613,-0.9474,0.2135,901.1845,-40.0160,-25.2052,-30.7440,8090.4785,26.1941,-112.3445,36.4826,46.89615420,-114.03444420,5.00410032,958.52337646,
21.718612,-0.5298,0.5068,0.3380,-9.5657,-2.8987,5.9570,-0.1275,0.9775,-0.2140,900.9214,-42.5414,-22.8628,-27.9014,10137.5625,32.6171,-107.5389,26.6213,46.89609850,-114.03439190,5.14699030,958.52337646,
21.818891,0.1268,0.8863,1.2900,-3.4357,-0.3218,12.4360,1.9616,1.4228,-0.9698,900.8793,-38.7106,-26.3886,-32.5984,10137.5625,20.4780,-101.2117,19.7861,46.89609850,-114.03439190,5.14699030,958.52337646,
21.919168,2.1769,1.4057,3.2018,14.3679,7.2061,32.6564,2.8937,-0.2192,1.0232,901.0568,-32.9888,-36.1486,-29.1092,10137.5625,7.8838,-114.2351,21.7822,46.89609850,-114.03439190,5.14699030,958.52337646,
22.019524,0.2578,-0.7083,-0.4980,-3.5333,-13.4886,-1.5809,0.4535,-1.6285,2.3233,901.0916,-31.0856,-34.3430,-31.7200,10137.5625,358.5480,-114.4040,32.8701,46.89609850,-114.03439190,5.14699030,958.52337646,
22.119585,0.5412,-0.6893,-0.3725,-2.7123,-5.9333,1.7881,-0.8238,-0.3968,1.5015,900.9795,-40.5040,-26.7912,-29.6216,8431.3369,58.5995,174.5500,56.2081,46.89609850,-114.03439190,5.14699030,958.52337646,
22.220031,0.9582,-0.1730,1.1751,0.3975,-2.0171,15.1095,-3.1994,-1.5827,-1.4389,900.9500,-43.3588,-21.2768,-31.4516,8431.3369,56.4235,-173.2408,55.9331,46.89609850,-114.03439190,5.14699030,958.52337646,
22.319976,1.7725,0.6829,3.0654,13.3476,5.0128,41.1971,-0.6945,-1.8699,-1.9316,901.1131,-44.2250,-23.4972,-28.0112,8431.3369,46.9195,-153.4798,42.4848,46.89609850,-114.03439190,5.14699030,958.52337646,
22.420683,-0.4351,0.6352,-0.2763,-9.8616,2.9343,3.0077,-0.9122,0.1390,-1.8568,901.0433,-41.3092,-25.9738,-30.3292,4932.0034,38.7163,-142.2429,35.2434,46.89609850,-114.03439190,5.14699030,958.52337646,
22.520624,-0.1612,1.2063,1.0877,-8.3907,6.2276,14.0352,1.5044,-0.3810,-1.2024,901.0350,-33.5378,-31.8176,-34.5992,9383.8398,27.1686,-134.2370,30.7743,46.89609850,-114.03439190,5.14699030,958.52337646,
22.620775,1.8676,1.4696,2.7353,7.3009,11.9847,30.9163,2.2258,0.2429,0.8298,901.1476,-27.3158,-40.5772,-29.4874,9383.8398,13.2697,-141.0111,38.3415,46.89609850,-114.03439190,5.14699030,958.55480957,
22.722001,0.7215,-0.4537,-0.2360,-2.6787,-7.4952,1.4134,0.7022,-1.3751,3.6161,901.2291,-25.8030,-37.8810,-35.9046,9383.8398,7.5902,-137.5141,57.8860,46.89605160,-114.03434840,4.82189369,958.55480957,
22.822261,0.4268,-0.5859,-0.4064,-3.7984,-5.1307,-0.2993,-0.9379,-0.4070,-0.2508,901.0898,-35.2336,-30.4390,-34.3308,8546.8359,46.1607,-175.4905,64.2100,46.89605160,-114.03434840,4.82189369,958.55480957,
22.922712,1.1979,-0.3255,2.3590,2.5840,-4.2590,24.8120,-2.2836,-1.2721,-1.5373,901.1454,-36.5756,-28.5968,-36.1852,8546.8359,40.5380,-159.7862,58.3692,46.89605160,-114.03434840,4.82189369,958.55480957,
23.023786,0.2950,1.0691,1.0229,0.4838,8.2245,21.5195,-1.6588,0.5304,-0.9654,901.2401,-38.6374,-25.0344,-34.3552,8546.8359,40.7757,-151.5599,48.5046,46.89605160,-114.03434840,4.82189369,958.55480957,
23.123926,-0.4537,0.4934,-0.3696,-11.1757,0.8089,2.1779,-0.0970,0.2784,-0.5123,901.1290,-38.7716,-25.3394,-34.9042,8546.8359,35.9174,-140.3603,41.4666,46.89605160,-114.03434840,4.82189369,958.55480957,
23.224911,-0.2378,0.9782,1.2780,-8.3656,3.6727,17.7363,1.7310,0.9788,-0.4406,901.0895,-37.8200,-27.7062,-35.1848,13812.6201,29.8478,-133.5945,33.3244,46.89605160,-114.03434840,4.82189369,958.55480957,
23.324721,0.9016,1.8323,2.4307,-0.3897,14.8470,30.8104,4.2875,4.3346,1.7650,901.2422,-31.0002,-35.4532,-32.8180,13812.6201,16.0456,-142.4344,44.8425,46.89605160,-114.03434840,4.82189369,958.55480957,
23.425230,0.2685,-1.0753,0.3076,-6.7686,-11.4417,6.5838,1.3804,-0.7362,2.5762,901.3317,-28.9994,-37.6370,-33.8550,13812.6201,15.7521,-152.4441,66.1628,46.89605160,-114.03434840,4.82189369,958.55480957,
23.525462,0.2727,-1.1004,-0.7383,-5.3891,-9.2556,-2.7905,-1.1571,0.1999,1.5305,901.1285,-39.2840,-32.2324,-24.0584,11502.3926,50.9768,167.3501,60.9109,46.89605160,-114.03434840,4.82189369,958.55480957,
23.626216,1.5422,-0.7774,1.0860,4.4564,-6.0309,12.9303,-4.5645,-1.4834,-0.1866,901.1567,-43.6272,-23.3264,-27.3768,8683.4238,68.5674,165.0676,49.7867,46.89605160,-114.03434840,4.82189369,958.64685059,
23.726346,1.6225,1.1931,1.7142,19.7700,12.8571,32.5615,-2.9347,0.0286,-2.1208,901.3431,-49.2148,-18.4708,-24.3146,8683.4238,63.5782,-170.6313,36.1551,46.89601030,-114.03430790,5.55123234,958.64685059,
23.826587,-0.8286,0.4808,0.0059,-9.8098,-1.7022,7.5530,-0.0056,-0.9822,0.2832,901.1617,-47.5678,-18.3000,-24.4366,8683.4238,52.8665,-134.4766,2.5713,46.89601030,-114.03430790,5.55123234,958.64685059,
23.926943,0.0086,1.2745,1.2933,-0.2401,5.6892,19.4139,1.0351,1.1194,-1.5570,901.0883,-46.5430,-21.4598,-23.2532,8683.4238,51.7557,-133.2186,-4.8119,46.89601030,-114.03430790,5.55123234,958.64685059,
24.027392,0.5846,2.0344,2.7519,4.9137,14.8130,35.0120,4.4724,5.1427,-1.0719,901.1563,-35.1238,-35.7826,-27.0596,8683.4238,31.3123,-148.4685,1.0136,46.89601030,-114.03430790,5.55123234,958.64685059,
24.127525,0.5191,-0.9805,0.1398,1.1543,-9.3606,11.0161,2.3821,2.2362,2.7317,901.3220,-30.7928,-40.1990,-23.3996,8683.4238,27.6032,-170.0552,24.8374,46.89601030,-114.03430790,5.55123234,958.64685059,
24.227780,0.0111,-1.2979,-0.9599,-4.0994,-10.5156,-1.1457,-0.8747,0.8610,1.8284,901.2248,-40.4308,-33.3914,-15.5916,8683.4238,45.9542,168.8735,26.0483,46.89601030,-114.03430790,5.55123234,958.64685059,
24.327948,1.4377,-1.2150,0.8125,8.9563,-10.9653,15.1297,-5.2647,-1.3971,0.2637,901.2158,-44.3836,-24.9490,-21.3622,8683.4238,53.2300,-176.8601,22.2335,46.89601030,-114.03430790,5.55123234,958.64685059,
24.428330,1.3297,1.1517,0.9997,16.1720,9.0553,19.5100,-4.3173,0.1167,-2.1287,901.2788,-50.0688,-18.3854,-20.0568,8683.4238,57.4328,-153.6644,9.6452,46.89601030,-114.03430790,5.55123234,958.64685059,
24.528464,-0.3349,1.0226,0.0353,-4.1622,4.4369,9.0989,0.2156,-0.7753,0.0976,901.1422,-50.3616,-14.0910,-18.7636,8683.4238,62.3505,-141.2098,2.0793,46.89601030,-114.03430790,5.55123234,958.64685059,
24.628782,-0.0037,1.3720,1.1058,-1.1315,7.5556,18.6080,1.4799,1.1716,-1.7683,901.1221,-47.5312,-21.0694,-21.2280,8683.4238,53.8653,-139.1837,-1.5889,46.89601030,-114.03430790,5.55123234,958.78314209,
24.729032,1.1641,1.5252,3.2040,12.3371,12.6015,41.7017,4.0371,4.9105,-1.4816,901.2344,-36.6976,-36.0632,-23.3386,8683.4238,33.9779,-151.7290,4.1752,46.89596970,-114.03425870,5.29079771,958.78314209,
24.829275,0.6245,-1.2022,0.2388,5.3511,-9.6410,11.5058,2.2235,0.7464,1.8004,901.2911,-35.1360,-38.1982,-18.9588,3350.1062,34.4362,-173.1897,22.2903,46.89596970,-114.03425870,5.29079771,958.78314209,
24.929228,-0.1257,-1.1608,-0.8619,-4.8338,-9.6808,-0.6606,-0.9916,-0.1986,1.5565,901.2076,-42.2852,-31.1466,-12.4318,3350.1062,47.8811,170.1620,21.5688,46.89596970,-114.03425870,5.29079771,958.78314209,
25.029912,1.6489,-0.5777,1.1372,9.4904,-4.9119,16.4219,-4.7389,-2.2071,0.1490,901.2126,-47.6654,-24.8880,-13.8958,3350.1062,53.7345,173.9462,13.3372,46.89596970,-114.03425870,5.29079771,958.78314209,
25.129804,1.8280,1.0603,1.8426,23.0461,9.3464,30.0158,-4.4487,-0.5643,-2.6105,901.2287,-48.7268,-25.7420,-14.9816,3613.4788,50.3363,-160.6381,0.2567,46.89596970,-114.03425870,5.29079771,958.78314209,
25.230093,-0.7616,0.5579,-0.2362,-5.6684,0.0787,6.3023,0.0037,-1.2011,1.1141,901.1774,-46.4698,-25.1320,-19.2272,3613.4788,52.1951,-143.1073,-13.0078,46.89596970,-114.03425870,5.29079771,958.78314209,
25.330507,-0.1753,1.3425,0.9787,1.7640,5.1212,14.9964,0.0655,1.0012,-2.0706,901.0201,-46.0306,-25.1320,-17.1044,3613.4788,61.9366,-125.0024,-25.6384,46.89596970,-114.03425870,5.29079771,958.78314209,
25.430785,0.9395,2.5740,3.2246,11.1590,17.0665,36.8108,4.7632,5.2435,-0.7538,901.0806,-35.4166,-37.3564,-21.5818,3613.4788,39.0393,-145.6916,-23.3356,46.89596970,-114.03425870,5.29079771,958.78314209,
25.531003,0.2352,-1.7164,0.3215,0.1927,-16.2299,13.8315,3.9479,2.5845,3.1355,901.3256,-28.4748,-44.0542,-17.6900,3613.4788,29.7130,-171.3934,2.7870,46.89596970,-114.03425870,5.29079771,958.78314209,
25.631603,-0.2839,-1.9938,-1.2903,-5.5012,-17.9919,-7.6340,-3.3282,-0.6540,1.8703,901.2059,-38.4178,-36.0998,-10.3700,3613.4788,44.0654,173.7127,8.2289,46.89596970,-114.03425870,5.29079771,958.84136963,
25.731519,4.7721,0.5225,3.3355,41.1805,-0.4988,39.4988,-5.0970,-3.5241,1.0216,901.2209,-46.4576,-28.7066,-14.7620,3613.4788,53.9523,-160.1276,-1.4592,46.89592680,-114.03422060,5.31239986,958.84136963,
25.831588,-0.7099,0.6033,0.3357,-5.4496,0.6868,10.6989,-2.0964,-3.3474,1.4295,901.3963,-47.1652,-23.0946,-19.3736,3613.4788,59.1556,-133.0438,-15.2217,46.89592680,-114.03422060,5.31239986,958.84136963,
25.932011,-0.8310,0.6516,0.1949,-3.5381,-1.4034,5.2181,-2.0736,0.7004,-0.8813,901.0703,-49.6418,-16.1040,-17.8730,3613.4788,71.3202,-112.6630,-21.9356,46.89592680,-114.03422060,5.31239986,958.84136963,
26.032505,0.4211,1.0628,1.4480,7.8618,3.4359,16.3905,1.2043,1.3418,-1.7433,901.0555,-45.7500,-21.3500,-22.2040,3613.4788,63.3694,-110.7769,-24.0148,46.89592680,-114.03422060,5.31239986,958.84136963,
26.133512,2.3141,1.2687,3.0862,22.1714,9.4869,34.4777,4.5165,2.4466,-0.9881,901.1358,-37.7468,-32.8668,-17.7144,3613.4788,48.5085,-135.6480,-25.0321,46.89592680,-114.03422060,5.31239986,958.84136963,
26.233487,0.2058,-1.1717,-0.3860,3.5258,-14.5003,6.7551,2.0682,1.0695,2.4357,901.2075,-34.3796,-33.3060,-15.8478,3613.4788,37.6005,-158.8848,-7.9112,46.89592680,-114.03422060,5.31239986,958.84136963,
26.333673,-0.0367,-1.2861,-0.9184,0.1502,-14.5663,0.6967,0.0050,-1.1097,2.5420,901.1616,-40.3332,-20.3252,-7.3444,3613.4788,51.4093,-166.8622,-6.0384,46.89592680,-114.03422060,5.31239986,958.84136963,
26.434493,1.8724,-0.8288,0.9736,16.4354,-12.2853,14.9667,-4.7629,-1.7741,0.1174,901.1448,-42.6390,-11.0532,-2.3790,3613.4788,63.6790,-152.1235,-11.9690,46.89592680,-114.03422060,5.31239986,958.84136963,
26.534969,0.9367,0.6665,1.0527,24.6588,1.5870,20.6487,-3.7135,0.9488,-1.5142,901.1763,-38.9912,-12.1634,1.2688,3613.4788,71.3697,-128.8112,-22.6052,46.89592680,-114.03422060,5.31239986,958.84136963,
26.635460,-0.4064,1.0010,-0.5334,0.6816,1.1632,-2.0980,-0.2640,-1.0987,0.5502,901.1017,-36.4170,-10.5530,-5.3924,3613.4788,84.7824,-96.2765,-27.1234,46.89592680,-114.03422060,5.31239986,958.75164795,
26.735668,0.1579,1.4640,1.0125,6.5165,6.0605,9.2009,0.1201,0.3168,-2.3845,901.0532,-35.1970,-14.5180,-4.7702,3613.4788,90.3855,-90.3789,-32.1590,46.89588810,-114.03417520,5.25352955,958.75164795,
26.835978,1.8605,2.3499,3.2526,25.0200,17.0760,33.6638,4.2860,5.7354,-4.1388,901.2463,-32.8180,-22.9848,-1.2200,3613.4788,80.7363,-107.8075,-45.2129,46.89588810,-114.03417520,5.25352955,958.75164795,
26.936494,0.5297,-1.6689,0.4600,10.1740,-17.7179,13.4438,3.1515,3.7379,2.1030,901.3608,-29.7802,-30.2560,-6.0268,3613.4788,40.8521,-160.8410,-29.4613,46.89588810,-114.03417520,5.25352955,958.75164795,
27.036889,-0.1281,-1.7536,-1.0944,1.8698,-18.3508,-0.7064,0.5501,0.4676,2.8924,901.2440,-37.6004,-21.4720,-5.8072,3613.4788,55.6011,-171.5063,-16.3424,46.89588810,-114.03417520,5.25352955,958.75164795,
27.137243,1.7682,-1.4115,0.5723,18.9964,-16.6996,13.5068,-4.9644,-1.2220,1.8509,901.1772,-44.3714,-9.7112,-3.5990,3613.4788,73.1565,-153.4004,-17.9986,46.89588810,-114.03417520,5.25352955,958.75164795,
27.237755,1.6128,0.9000,1.4086,24.7623,2.3258,18.2291,-5.5246,-0.1355,-1.1396,901.2531,-43.3832,-5.9536,1.1712,3613.4788,88.3496,-119.9517,-20.0544,46.89588810,-114.03417520,5.25352955,958.75164795,
27.338241,-0.9371,1.4484,-0.2378,-6.0678,4.0833,0.4823,-1.4812,-0.1633,0.3909,901.1871,-43.0172,-2.5132,-3.0866,3613.4788,93.2470,-99.6178,-16.7104,46.89588810,-114.03417520,5.25352955,958.75164795,
27.438517,1.0863,2.2976,1.0032,14.6955,13.8088,8.9706,-1.6518,1.2749,-3.5882,901.0380,-43.5784,-9.7722,-1.9154,3613.4788,98.2467,-85.0361,-24.4765,46.89588810,-114.03417520,5.25352955,958.75164795,
27.539081,4.2554,2.7385,3.5648,46.6481,20.4639,35.0077,5.0422,5.1553,-4.1991,901.1680,-39.6622,-29.8534,-7.2102,3613.4788,80.3206,-104.7971,-46.9590,46.89588810,-114.03417520,5.25352955,958.75164795,
27.639398,0.6435,-2.2828,-0.2581,11.6357,-23.9990,5.9333,4.2591,3.6425,2.2007,901.3519,-28.5358,-41.1628,-9.3208,3613.4788,36.6894,-162.0499,-34.9245,46.89588810,-114.03417520,5.25352955,958.78314209,
27.740071,-0.3789,-1.8030,-1.2648,0.0696,-18.1326,-3.3449,0.3787,0.4657,3.5867,901.2387,-39.1742,-31.9396,-3.7698,3613.4788,50.8210,-177.0968,-21.0492,46.89585130,-114.03413510,5.12478542,958.78314209,
27.840509,1.2331,-1.3566,0.5580,14.9034,-16.8320,13.8677,-4.7481,-1.8839,3.7994,901.1873,-50.0810,-16.3358,-2.9036,3613.4788,76.6873,-154.7362,-23.3711,46.89585130,-114.03413510,5.12478542,958.78314209,
27.940928,7.2348,2.6526,2.3853,78.2025,13.7341,33.2137,-4.5306,-0.9330,1.1015,901.3035,-54.3632,-5.7828,3.3794,3613.4788,96.6105,-114.7615,-17.7807,46.89585130,-114.03413510,5.12478542,958.78314209,
28.041194,-1.3320,0.7717,-0.3395,-8.0604,-2.6570,-2.6134,-1.2733,1.2137,1.0805,901.2101,-52.5088,-7.6738,-5.5022,3613.4788,94.6546,-92.1430,-20.4541,46.89585130,-114.03413510,5.12478542,958.78314209,
28.141325,0.3278,1.5963,0.7068,2.5777,3.9219,6.8100,-0.1124,0.6458,-2.2918,901.1772,-53.4848,-8.5522,-2.8670,3613.4788,97.1010,-89.6008,-22.4864,46.89585130,-114.03413510,5.12478542,958.78314209,
28.241700,2.9000,3.2928,3.2538,29.1797,24.0627,30.5299,3.4984,4.2149,-4.9646,901.1569,-46.8480,-27.4012,-6.5514,3613.4788,83.8577,-103.9014,-42.3212,46.89585130,-114.03413510,5.12478542,958.78314209,
28.342359,1.7537,-1.7505,0.4732,25.2583,-16.7118,17.8924,5.9086,3.4819,0.7946,901.3090,-32.7448,-42.8464,-6.7954,3613.4788,38.1425,-165.1040,-34.5093,46.89585130,-114.03413510,5.12478542,958.78314209,
28.442781,-0.5501,-2.2812,-0.9706,-1.8694,-20.8272,0.0546,1.5079,1.6447,2.2210,901.2816,-37.7712,-35.3312,2.4888,3613.4788,44.8707,171.6607,-20.6853,46.89585130,-114.03413510,5.12478542,958.78314209,
28.543154,0.9448,-1.1299,0.2518,8.1231,-13.7666,12.7560,-4.7197,-1.1620,2.8793,901.2463,-47.3238,-25.4248,-5.4290,3613.4788,59.8911,-170.6453,-19.8179,46.89585130,-114.03413510,5.12478542,958.78314209,
28.643176,7.0899,2.3144,4.6889,69.6176,8.6446,48.8960,-4.6980,-2.0985,1.3323,901.2947,-54.2534,-17.1166,-6.1854,3613.4788,76.6392,-129.5685,-21.9655,46.89585130,-114.03413510,5.12478542,958.78314209,
28.743563,-1.6012,0.6246,0.4133,-11.1701,-1.8642,5.8996,-1.9687,-1.0175,2.0822,901.3434,-52.9358,-13.0784,-13.0906,3613.4788,81.0976,-104.2136,-24.2350,46.89580600,-114.03407900,6.09139490,958.78314209,
28.843791,-0.7005,1.1796,0.9492,-7.3369,1.5168,6.2420,-1.6543,1.5299,-1.3006,901.1354,-53.0822,-11.3704,-9.0036,3613.4788,88.3460,-97.4641,-25.1324,46.89580600,-114.03407900,6.09139490,958.78314209,
28.944505,2.0236,2.5199,3.5814,22.8612,18.2423,30.0426,3.2025,4.9200,-3.9733,901.0774,-46.5552,-27.8526,-17.3972,3613.4788,70.5957,-108.9709,-37.5774,46.89580600,-114.03407900,6.09139490,958.78314209,
29.044694,0.6834,-1.7921,-0.3617,11.8856,-19.7003,6.0202,4.5775,4.0999,0.8880,901.2978,-32.9156,-42.8220,-14.6522,3613.4788,35.5044,-162.1932,-25.6566,46.89580600,-114.03407900,6.09139490,958.78314209,
29.144963,-0.4407,-1.9534,-1.0282,-1.1050,-19.9417,1.3269,0.6272,1.9236,2.7803,901.2433,-42.1876,-32.5862,-6.8442,3613.4788,48.0975,-176.4631,-16.8834,46.89580600,-114.03407900,6.09139490,958.78314209,
29.245337,1.7260,-0.9532,0.6582,15.1954,-13.7342,13.5691,-5.4953,-1.5042,1.3804,901.1893,-50.6178,-22.8506,-15.7258,3613.4788,61.6330,-156.9079,-12.6215,46.89580600,-114.03407900,6.09139490,958.78314209,
29.345482,3.8478,1.1907,3.5616,43.9994,3.6849,44.9642,-3.6184,-2.5701,-1.3765,901.2988,-51.8378,-17.5924,-16.3114,3613.4788,67.4318,-124.0338,-19.9536,46.89580600,-114.03407900,6.09139490,958.78314209,
29.445854,-1.3641,0.4445,0.5216,-8.9029,-3.8397,7.0410,-1.1168,-2.3379,0.8520,901.2223,-50.5690,-17.8608,-18.5562,3613.4788,77.0674,-97.4625,-30.2229,46.89580600,-114.03407900,6.09139490,958.78314209,
29.546205,-0.7439,0.9118,1.0360,-3.0534,-0.0516,7.4879,-1.5419,0.9314,-1.2478,901.0995,-51.3986,-19.2150,-12.4318,3613.4788,86.5677,-88.7370,-32.6912,46.89580600,-114.03407900,6.09139490,958.78314209,
29.646439,1.2287,2.2485,2.8531,20.6643,15.9458,29.6270,3.9145,5.0695,-3.2584,901.1876,-46.5552,-29.5484,-15.6404,3613.4788,72.2603,-105.3119,-43.2149,46.89580600,-114.03407900,6.09139490,958.78314209,
29.746676,1.4994,-1.3667,0.3617,25.6536,-14.1524,16.1876,4.2988,4.8136,0.0291,901.2642,-36.1120,-41.5532,-11.9316,3613.4788,39.7291,-157.7565,-30.4596,46.89580600,-114.03407900,6.09139490,958.75164795,
29.847253,-0.2968,-1.9448,-0.9130,1.7201,-20.1263,1.7707,1.7635,-0.0502,2.1772,901.2698,-41.8948,-33.7452,-6.8808,3613.4788,47.9110,-174.1991,-18.8515,46.89576200,-114.03402080,5.74606609,958.75164795,
29.947598,0.5405,-1.2918,0.1176,6.7610,-15.4481,9.8862,-4.8377,-1.3937,2.0072,901.2355,-49.0928,-25.2784,-7.3200,3613.4788,61.1090,-159.4479,-20.8895,46.89576200,-114.03402080,5.74606609,958.75164795,
30.048021,6.5736,1.6528,3.2000,64.4339,4.1240,31.4729,-5.3029,-2.1997,0.6208,901.2466,-55.0342,-18.5562,-5.8072,3613.4788,77.0900,-123.3867,-23.7398,46.89576200,-114.03402080,5.74606609,958.75164795,
30.148188,-1.1788,0.7343,0.7748,-5.6842,-1.2060,9.2255,-2.0307,-0.3835,1.9395,901.3197,-53.0212,-14.9450,-10.1748,3613.4788,86.3819,-95.6452,-27.5671,46.89576200,-114.03402080,5.74606609,958.75164795,
30.249018,-0.8437,1.0466,0.7947,-4.5072,1.4334,7.0791,-1.2169,-0.3133,-1.0850,901.0691,-53.9118,-10.7360,-9.8210,3613.4788,88.4331,-89.4391,-22.9261,46.89576200,-114.03402080,5.74606609,958.75164795,
30.348925,1.6619,1.9726,2.5918,21.7421,11.4627,26.7384,3.1055,4.3261,-4.0246,901.1150,-48.9952,-20.9230,-14.6278,3613.4788,78.1547,-98.6231,-34.5549,46.89576200,-114.03402080,5.74606609,958.75164795,
30.449652,1.5862,-1.4768,1.1732,23.1552,-17.7001,19.1877,3.5473,5.0492,-1.2926,901.3318,-35.5752,-40.2478,-13.9202,3613.4788,42.8960,-145.4531,-35.5281,46.89576200,-114.03402080,5.74606609,958.75164795,
30.549640,-0.2266,-2.2223,-1.1798,2.0434,-23.6750,-2.2323,2.2433,-0.0925,2.2270,901.2408,-39.8940,-35.0994,-7.1492,3613.4788,48.1335,-165.7194,-23.8871,46.89576200,-114.03402080,5.74606609,958.75164795,
30.649681,1.1704,-1.7354,0.3315,13.3050,-20.7861,9.6405,-5.2438,-2.2882,2.1767,901.2049,-47.5800,-24.7294,-6.3562,3613.4788,64.2779,-147.2229,-26.5547,46.89576200,-114.03402080,5.74606609,958.82446289,
30.750602,2.9948,1.0958,1.4859,47.5065,6.0875,25.2448,-4.7152,1.9080,-0.9946,901.2978,-53.3140,-14.9938,-6.0268,3613.4788,83.7756,-108.0568,-24.2746,46.89572460,-114.03398380,5.51526117,958.82446289,
30.850636,-0.1326,1.5473,0.0471,-0.3179,4.4998,4.1109,-0.1407,-0.6091,2.3217,901.1829,-54.1802,-4.8922,-8.6986,3613.4788,90.3701,-85.6698,-15.4731,46.89572460,-114.03398380,5.51526117,958.82446289,
30.951010,1.2197,2.1977,1.2357,11.1552,11.5301,10.3901,0.4050,-0.9108,-2.1218,901.1264,-54.5828,-8.7596,-8.0642,3613.4788,92.6192,-75.5080,-18.9698,46.89572460,-114.03398380,5.51526117,958.82446289,
31.051004,3.8790,2.2637,3.7249,37.2414,13.4686,33.5609,5.2041,1.8934,-3.9941,901.1636,-46.5796,-30.8782,-7.7104,3613.4788,91.4400,-83.7963,-43.0131,46.89572460,-114.03398380,5.51526117,958.82446289,
31.151434,-0.4208,-2.4201,-0.2661,4.3266,-26.5256,3.6959,4.6757,2.5984,2.2140,901.3625,-31.0246,-41.9314,-6.6734,3613.4788,48.8773,-144.1713,-51.0476,46.89572460,-114.03398380,5.51526117,958.82446289,
31.251906,-0.8062,-2.0815,-1.0678,-2.7792,-23.3781,-2.9324,0.1008,1.6299,3.8587,901.2703,-43.9200,-27.7916,0.6344,3613.4788,62.8804,-156.4060,-32.4964,46.89572460,-114.03398380,5.51526117,958.82446289,
31.352121,2.4375,-1.0974,0.7716,25.0794,-16.9973,12.3519,-5.1558,-0.2555,1.6292,901.1853,-54.3998,-9.6990,-5.1240,3613.4788,82.2504,-134.1882,-18.6119,46.89572460,-114.03398380,5.51526117,958.82446289,
31.452537,1.6919,0.4140,1.2461,28.1615,-3.8548,14.9890,-5.9394,0.4911,-1.9821,901.2442,-55.3758,-7.9422,-3.5746,3613.4788,88.6044,-102.7024,-17.2841,46.89572460,-114.03398380,5.51526117,958.82446289,
31.553214,-0.5736,1.4249,-0.0218,-2.9108,4.2668,-0.0276,-0.7270,-1.0774,0.3310,901.1540,-54.5706,-5.8804,-5.5388,3613.4788,94.5925,-82.3361,-16.1513,46.89572460,-114.03398380,5.51526117,958.82446289,
31.653321,1.0213,2.1756,1.2777,13.1997,12.9619,10.1309,-0.1695,2.0359,-4.3349,901.1022,-51.7768,-13.6518,-6.5270,3613.4788,96.8692,-73.5960,-25.2703,46.89572460,-114.03398380,5.51526117,958.80346680,
31.753570,6.0216,3.0395,3.4875,56.1313,24.0508,32.4194,5.7890,2.9489,-2.8563,901.2358,-40.9432,-36.8806,-8.6742,3613.4788,79.0581,-100.0412,-50.9800,46.89568160,-114.03394060,5.41920757,958.80346680,
31.853733,0.3552,-2.5127,-1.2563,9.8566,-26.6306,-2.7598,5.5887,1.6391,3.2090,901.4554,-27.3036,-45.1522,-4.5750,3613.4788,36.8144,-161.2695,-44.5425,46.89568160,-114.03394060,5.41920757,958.80346680,
31.954305,-0.3701,-2.2808,-0.9938,-0.1981,-24.2568,-6.6314,-2.8998,-2.0231,4.2160,901.3743,-40.7114,-30.5000,3.9284,3613.4788,56.7825,-164.6475,-35.9817,46.89568160,-114.03394060,5.41920757,958.80346680,
32.054512,2.8429,-1.9669,1.3469,29.5465,-26.1262,14.3907,-7.1549,-1.5083,3.3464,901.2445,-50.2884,-20.1178,1.5494,3613.4788,84.8506,-119.9265,-31.7622,46.89568160,-114.03394060,5.41920757,958.80346680,
32.154809,0.6962,1.0371,1.1858,16.3479,1.2605,10.5538,-3.9608,0.7244,-0.1696,901.2476,-52.6064,-10.7482,-2.6230,3613.4788,92.4881,-84.3466,-20.7034,46.89568160,-114.03394060,5.41920757,958.80346680,
32.255235,-0.2296,1.3555,-0.3682,1.8122,4.7109,-5.7795,-0.6768,-2.0609,-0.3274,901.0899,-53.3140,-2.7816,-3.5502,3613.4788,96.3114,-73.7278,-11.3077,46.89568160,-114.03394060,5.41920757,958.80346680,
32.355197,0.6847,1.4411,2.0501,10.0362,7.0042,15.0786,-0.3644,3.6370,-3.7169,901.0936,-51.9842,-11.8218,-5.4168,3613.4788,99.1483,-64.4895,-20.8921,46.89568160,-114.03394060,5.41920757,958.80346680,
32.455728,4.9970,0.4685,2.9281,53.1773,-0.2684,31.3622,6.8363,3.2470,-1.0343,901.1754,-45.0790,-30.4024,-15.3598,3613.4788,77.0841,-92.5385,-42.4024,46.89568160,-114.03394060,5.41920757,958.80346680,
32.556125,-0.1486,-2.8161,-0.7076,5.8479,-32.7604,-1.1708,4.7385,-0.8257,2.1489,901.3912,-40.9676,-34.4406,-9.9918,3613.4788,62.7416,-131.0150,-38.2663,46.89568160,-114.03394060,5.41920757,958.80346680,
32.656484,0.3545,-2.8365,0.6811,5.6938,-33.9633,6.1309,-4.4224,-5.2553,4.7043,901.2926,-47.6776,-21.1182,1.9276,3613.4788,84.3833,-124.5956,-32.7314,46.89568160,-114.03394060,5.41920757,958.58227539,
32.756859,1.8367,-3.3014,1.6621,21.4150,-40.3366,12.7950,-6.7689,-1.5041,4.3761,901.2838,-52.1062,-6.9052,9.3818,3613.4788,107.3872,-84.6512,-12.8144,46.89563640,-114.03389890,5.46795273,958.58227539,
32.857050,2.0852,-0.3134,1.9704,28.2421,-9.6909,12.2588,-8.6688,3.9980,2.1896,901.1865,-51.0448,7.1248,14.7742,3613.4788,95.9785,-38.2387,14.5960,46.89563640,-114.03389890,5.46795273,958.58227539,
32.957480,1.1045,2.3998,1.4760,10.7029,24.8379,0.8066,-3.7308,2.1064,-1.1642,901.2791,-50.6056,16.9092,7.1004,3613.4788,79.2215,-11.9035,13.8562,46.89563640,-114.03389890,5.46795273,958.58227539,
33.057677,1.5659,-1.7254,0.3790,12.3318,-15.4531,-6.5665,5.6667,-1.3390,-0.1196,901.2226,-52.7040,12.6514,1.8910,3613.4788,82.1385,-22.5956,9.5820,46.89563640,-114.03389890,5.46795273,958.58227539,
33.158048,0.0921,-1.6700,-0.6503,-0.3815,-26.6206,-12.7907,3.5562,-3.7084,0.0392,901.3324,-50.8740,18.3488,2.7938,1352.9175,88.4893,-57.9067,18.2365,46.89563640,-114.03389890,5.46795273,958.58227539,
33.258427,-1.2219,-0.9327,0.5681,-12.2158,-14.8263,1.8844,0.0883,-0.7304,-0.7108,901.2358,-46.2990,24.0218,10.9922,1352.9175,98.2969,-69.8782,7.8449,46.89563640,-114.03389890,5.46795273,958.58227539,
33.358582,0.8540,-2.1294,-0.1173,3.1404,-30.6645,-4.4458,-3.0023,3.1712,0.8990,901.2753,-48.8244,17.8974,10.6262,1352.9175,92.0932,-52.9850,4.0429,46.89563640,-114.03389890,5.46795273,958.58227539,
33.458913,1.4937,0.6386,0.0158,19.2296,-1.7877,-7.2239,-1.3229,3.8125,-1.6522,901.2093,-53.0944,13.4566,2.9890,1352.9175,83.9860,-38.4354,-4.9639,46.89563640,-114.03389890,5.46795273,958.58227539,
33.559205,-0.1127,1.2867,1.3194,2.8707,7.3922,2.5943,1.9535,-0.6971,-3.3063,901.1072,-55.4368,0.9028,-4.4774,1352.9175,89.4532,-40.4398,-18.7308,46.89563640,-114.03389890,5.46795273,958.58227539,
33.659626,1.6144,0.1558,2.8525,19.5339,-4.2814,24.6051,7.5781,2.2277,-3.0962,901.1993,-54.0826,-11.9438,0.1220,1352.9175,100.6091,-64.6764,-31.6561,46.89563640,-114.03389890,5.46795273,958.58227539,
33.759819,2.4231,-1.9135,1.7134,33.0070,-24.1918,19.7821,3.7907,3.5782,-3.5813,901.1296,-49.7516,-18.5074,6.7954,1352.9175,92.2195,-111.3104,-45.7762,46.89563640,-114.03389890,5.46795273,958.58227539,
33.860312,-0.1485,-2.4360,-0.4735,7.6580,-26.4876,2.8250,4.0806,-0.6313,-0.5267,901.3408,-46.5918,-15.0670,11.0166,1352.9175,84.3073,-143.7996,-50.8612,46.89563640,-114.03389890,5.46795273,958.55957031,
33.960691,-0.0924,-1.1312,0.5444,5.8969,-15.6374,9.1696,-0.9931,-0.5561,1.7826,901.3293,-46.2746,-7.6372,15.3720,1352.9175,92.6570,-141.9424,-51.4045,46.89559190,-114.03385780,4.59424782,958.55957031,
34.061063,0.9894,1.1070,-0.5047,15.5754,4.5409,1.0830,-1.3146,2.0806,1.1361,901.2909,-51.3986,-7.9056,10.3090,1352.9175,89.2053,-137.0310,-46.8487,46.89559190,-114.03385780,4.59424782,958.55957031,
34.161221,0.8044,0.8384,-0.3283,16.6748,3.2982,3.2176,1.2865,1.1882,-0.6625,901.2722,-54.8756,-1.6104,-0.4148,1352.9175,84.2951,-139.6858,-32.4737,46.89559190,-114.03385780,4.59424782,958.55957031,
34.261791,0.1974,0.2768,0.1141,7.3774,-1.2500,7.8482,0.0112,0.8019,-3.4950,901.2324,-53.7532,-9.2232,-8.0886,1352.9175,79.2732,-140.0872,-20.4591,46.89559190,-114.03385780,4.59424782,958.55957031,
34.362000,2.2544,0.6177,0.7199,30.2409,6.2264,13.6302,2.1409,0.1373,-2.8422,901.1857,-52.0574,-17.4094,-5.4778,1976.9587,71.8085,-152.1957,-24.6075,46.89559190,-114.03385780,4.59424782,958.55957031,
34.463385,0.0640,-1.1893,0.1609,4.6115,-15.2288,8.5467,-2.4058,1.7867,1.8897,901.3686,-49.3734,-18.3366,-11.0410,2541.4688,68.2729,-156.1627,-18.5334,46.89559190,-114.03385780,4.59424782,958.55957031,
34.563671,2.1170,-0.6511,-0.4754,23.0894,-10.4778,1.2570,-6.5432,0.5666,1.2919,901.2784,-53.1310,-2.4034,-13.7250,2541.4688,84.9272,-137.3980,-12.4634,46.89559190,-114.03385780,4.59424782,958.55957031,
34.664084,1.5623,-0.1739,0.9472,21.3713,-11.9662,12.8254,-3.9481,-1.3226,-0.3711,901.3509,-52.4600,3.1720,-12.6148,2541.4688,90.3167,-106.1555,-12.5231,46.89559190,-114.03385780,4.59424782,958.43505859,
34.764344,0.1044,1.1240,0.4782,0.0425,2.0121,6.4295,-0.8486,0.4905,0.3002,901.2668,-52.8382,14.4326,-10.2602,2541.4688,98.2194,-80.2901,2.1958,46.89555780,-114.03382550,5.28713608,958.43505859,
34.864506,0.8780,0.7717,0.3569,8.2929,-3.9153,3.8075,-0.7270,1.5995,-3.0456,901.1119,-57.6206,3.1354,-19.8982,2541.4688,96.5411,-71.8653,-8.3351,46.89555780,-114.03382550,5.28713608,958.43505859,
34.965181,2.9311,2.1571,2.7688,29.3415,11.3911,26.4306,6.3928,0.2140,-4.7550,901.2577,-56.1078,-28.9750,-28.4992,2541.4688,102.0983,-74.7540,-29.3313,46.89555780,-114.03382550,5.28713608,958.43505859,
35.065257,-0.4042,-1.9240,0.5103,9.7362,-19.6342,10.3394,2.1364,4.7319,-3.2617,901.2786,-20.6302,-58.8162,0.2806,2541.4688,74.2321,-123.6201,-59.1330,46.89555780,-114.03382550,5.28713608,958.43505859,
35.165749,-0.2306,-2.5675,-1.3026,1.4440,-28.2086,-9.7597,-3.3162,4.4450,1.1224,901.2604,-20.2642,-50.3494,15.6038,2541.4688,45.0884,-158.8461,-47.4711,46.89555780,-114.03382550,5.28713608,958.43505859,
35.265730,3.0091,-0.1388,1.2097,35.3357,-7.9604,16.9470,-5.2389,0.6546,0.2351,901.2118,-33.5256,-48.7878,-7.4908,2541.4688,45.9768,-134.2622,-34.5834,46.89555780,-114.03382550,5.28713608,958.43505859,
35.365833,0.5298,1.6274,1.6593,18.2947,8.6300,20.8772,-5.2932,-1.7736,0.6045,901.1993,-39.4792,-37.5272,-22.5090,2541.4688,60.3311,-94.7386,-32.4832,46.89555780,-114.03382550,5.28713608,958.43505859,
35.466394,-0.1831,0.6056,0.1245,2.1727,-1.5530,-2.1667,-2.8364,-0.3968,0.4059,901.0777,-49.1172,-22.7896,-26.0348,2541.4688,74.0529,-57.4487,-21.7993,46.89555780,-114.03382550,5.28713608,958.43505859,
35.566624,-0.0874,1.2232,1.8154,4.4334,6.6466,11.3688,0.4374,1.4977,-1.5115,901.0754,-48.0558,-16.5432,-30.9636,5438.7437,73.0624,-44.9744,-25.2765,46.89555780,-114.03382550,5.28713608,958.43505859,
35.666714,2.1503,1.5937,3.2115,22.0949,9.9252,25.9934,5.3407,1.3419,-1.3921,901.0343,-42.7366,-27.2914,-28.8774,5438.7437,66.0849,-67.7217,-35.8775,46.89555780,-114.03382550,5.28713608,958.43505859,
35.766969,-0.2810,-1.7802,-1.3719,3.5732,-23.6070,-10.5075,2.7422,-0.2804,2.3596,901.2422,-34.1356,-37.4540,-24.1438,5438.7437,46.6466,-102.3202,-41.6672,46.89555780,-114.03382550,5.28713608,958.37023926,
35.869308,0.3053,-2.2809,-0.6150,6.9536,-30.2408,-6.8540,-3.7726,-2.0956,1.7130,901.2556,-45.7378,-27.1328,-17.9096,5438.7437,57.5965,-99.4069,-28.7247,46.89551730,-114.03379170,4.96366596,958.37023926,
35.968073,4.4924,-0.4562,3.5237,45.9822,-15.3705,27.8554,-4.2899,-2.4322,0.6092,901.2086,-51.5694,-19.4468,-14.5668,3178.4463,71.5576,-69.2202,-21.0211,46.89551730,-114.03379170,4.96366596,958.37023926,
36.067847,-1.1511,0.6933,0.2626,-7.2187,-0.2459,-3.1561,-3.1642,-1.7521,0.2632,901.1517,-50.7398,-14.2862,-22.0576,3178.4463,74.1636,-52.2045,-23.4668,46.89551730,-114.03379170,4.96366596,958.37023926,
36.168084,-0.2011,1.3324,0.6034,1.5781,6.7040,-2.1335,-1.6929,0.0343,-1.6252,900.9861,-51.6670,-8.8450,-19.2394,3178.4463,76.4338,-43.4386,-16.0502,46.89551730,-114.03379170,4.96366596,958.37023926,
36.268854,0.9229,1.2076,2.2382,13.4262,6.5461,15.1891,3.4186,3.2466,-3.0668,901.0722,-47.5068,-21.2890,-23.6680,5101.3887,81.3881,-44.8386,-29.6977,46.89551730,-114.03379170,4.96366596,958.37023926,
36.369715,2.3378,-0.8593,1.7954,34.7581,-13.0130,19.7484,2.3511,6.3358,-1.7518,901.1756,-38.7838,-36.7586,-19.6298,5101.3887,69.1906,-80.8749,-45.5553,46.89551730,-114.03379170,4.96366596,958.37023926,
36.470359,0.2657,-1.5052,-1.1482,7.6483,-21.5485,-11.4162,2.0015,-1.3609,3.7245,901.2372,-42.8830,-31.4638,-16.3602,5101.3887,54.1622,-109.6082,-34.4127,46.89551730,-114.03379170,4.96366596,958.37023926,
36.570889,0.6336,-1.6733,0.7766,8.1891,-26.1821,8.6337,-3.4934,-1.6986,1.8151,901.1848,-49.6784,-20.6668,-11.7486,5101.3887,68.0305,-99.1844,-24.0780,46.89551730,-114.03379170,4.96366596,958.37023926,
36.671497,4.2298,0.7655,3.6312,43.6901,-7.4413,31.6280,-3.7174,0.0120,0.7157,901.2166,-53.7776,-14.5912,-11.1142,4159.3237,74.8978,-71.6759,-16.5388,46.89551730,-114.03379170,4.96366596,958.26782227,
36.771891,-0.1024,1.0580,0.2053,1.9220,2.4440,-2.0494,-1.1762,-0.4575,0.6343,901.0478,-52.3868,-9.9674,-21.3866,4159.3237,71.1926,-56.6298,-17.4972,46.89548700,-114.03376230,5.24442482,958.26782227,
36.872278,-0.2941,1.8450,1.1047,-1.1690,10.0959,3.5258,-0.3386,-0.0647,-1.5569,901.0609,-52.6674,-10.4188,-19.1662,4159.3237,77.7519,-50.2489,-16.7550,46.89548700,-114.03376230,5.24442482,958.26782227,
36.972377,0.7996,1.1707,2.3039,12.8043,4.2375,18.0130,4.9643,3.7967,-2.7706,901.1423,-45.1278,-27.7184,-18.8856,4159.3237,82.2568,-62.1956,-34.1202,46.89548700,-114.03376230,5.24442482,958.26782227,
37.072936,0.4989,-1.2578,0.5693,14.2919,-18.1761,9.4822,2.3009,5.4658,-0.4781,901.2944,-37.2344,-38.4910,-13.2126,4159.3237,58.9704,-103.7294,-43.4969,46.89548700,-114.03376230,5.24442482,958.26782227,
37.173200,-0.0789,-1.6766,-0.8720,4.7223,-23.1371,-3.6951,0.1537,0.4773,1.5951,901.2769,-41.1750,-33.1108,-11.3216,4159.3237,54.3015,-119.7226,-33.0275,46.89548700,-114.03376230,5.24442482,958.26782227,
37.273697,1.0160,-1.1423,0.7572,13.0838,-20.2415,9.1208,-4.5183,-1.0333,1.5420,901.2085,-47.1042,-26.1934,-13.9446,4159.3237,63.2954,-101.7734,-27.5152,46.89548700,-114.03376230,5.24442482,958.26782227,
37.374617,3.3204,0.9539,3.4875,39.6596,0.6822,31.3398,-4.8951,-1.3053,-1.1365,901.2186,-50.7154,-18.6050,-18.2634,4159.3237,71.4085,-70.1578,-22.5017,46.89548700,-114.03376230,5.24442482,958.26782227,
37.474896,-0.2264,0.9329,0.0455,1.3290,1.3357,-3.0543,-0.0122,-1.2724,1.1131,901.2277,-49.0806,-15.2866,-25.9250,6244.5186,74.0073,-51.9738,-24.1039,46.89548700,-114.03376230,5.24442482,958.26782227,
37.575086,-0.6974,1.2081,0.9655,-2.4787,4.4280,2.7106,-0.2731,0.8950,-2.5107,901.1206,-49.1660,-16.7262,-24.2658,6244.5186,77.6764,-54.4449,-23.4562,46.89548700,-114.03376230,5.24442482,958.26782227,
37.675835,1.6044,2.3360,3.1329,18.3737,15.4166,27.0936,5.7187,3.0042,-1.1798,901.2128,-42.6024,-30.9148,-22.6066,6244.5186,76.1457,-70.5824,-38.4398,46.89548700,-114.03376230,5.24442482,956.98028564,
37.776760,0.1930,-1.8353,-0.6829,5.4554,-24.0180,-0.6627,4.5269,-0.1746,4.0522,901.5101,-32.0860,-41.8216,-19.5078,6244.5186,43.5516,-118.4877,-38.7237,46.89544460,-114.03372010,5.56773758,956.98028564,
37.877013,-0.5382,-2.2499,-0.4903,-1.3872,-28.5962,-2.0709,-1.9550,-1.0975,2.3864,901.3387,-45.3352,-28.6212,-12.0170,6244.5186,57.2774,-122.0392,-24.0854,46.89544460,-114.03372010,5.56773758,956.98028564,
37.977244,2.3635,-1.1706,2.1664,22.5990,-21.8670,17.6851,-5.6398,-0.6954,1.1709,901.2297,-51.8134,-17.8242,-14.1886,4636.9087,69.1473,-95.7248,-14.6477,46.89544460,-114.03372010,5.56773758,956.98028564,
38.077522,0.9526,1.0402,1.0176,16.8928,2.3989,9.4779,-3.4421,1.3786,-1.7131,901.2486,-53.7166,-11.1996,-16.3236,4636.9087,73.5948,-72.0834,-10.9774,46.89544460,-114.03372010,5.56773758,956.98028564,
38.177880,-0.4608,0.9899,-0.7543,-1.9896,0.4226,-9.9466,-0.4755,-0.4641,0.4670,901.0344,-52.6796,-8.3082,-18.8978,4636.9087,75.2781,-70.2856,-13.8121,46.89544460,-114.03372010,5.56773758,956.98028564,
38.277984,0.1967,1.4037,1.1017,5.0280,5.5006,7.2041,2.2627,2.3826,-3.5723,901.0367,-52.4478,-12.8344,-17.8608,4636.9087,76.6355,-71.6291,-21.8169,46.89544460,-114.03372010,5.56773758,956.98028564,
38.378375,2.8435,1.7876,3.1592,30.6490,13.1827,35.1323,7.0113,2.7374,-1.0677,901.1959,-41.1994,-33.0376,-16.8482,4636.9087,59.0030,-106.2108,-37.9556,46.89544460,-114.03372010,5.56773758,956.98028564,
38.478861,0.6960,-2.0590,-0.3878,11.7801,-24.9541,6.8079,4.4391,-0.3486,1.9283,901.3716,-36.2462,-39.5646,-12.2976,4636.9087,40.8274,-141.8701,-29.5611,46.89544460,-114.03372010,5.56773758,956.98028564,
38.579329,-0.2734,-2.3282,0.1704,0.7525,-27.3320,4.2586,-4.6478,-1.6809,1.3820,901.2648,-42.0168,-33.5256,-8.8938,4636.9087,47.7228,-143.8236,-24.4508,46.89544460,-114.03372010,5.56773758,956.98028564,
38.679590,2.6788,-0.0049,2.6708,27.2406,-13.1811,28.7552,-5.5387,-1.7828,1.8381,901.2994,-48.2632,-22.9116,-17.4460,4636.9087,62.0763,-106.2984,-22.4859,46.89544460,-114.03372010,5.56773758,958.27362061,
38.780029,-0.3844,0.7998,0.6786,2.6747,-0.5207,6.5399,-2.5794,-0.3010,-1.4521,901.3231,-50.0688,-16.3480,-23.2898,4636.9087,66.2833,-78.6181,-23.4845,46.89540090,-114.03368220,5.34307384,958.27362061,
38.880281,-0.2995,1.3098,-0.8213,1.3039,3.8372,-9.8875,-0.6870,-1.0897,-0.8479,901.1652,-51.6548,-13.7494,-22.0332,4636.9087,72.7445,-70.7829,-20.8864,46.89540090,-114.03368220,5.34307384,958.27362061,
38.980575,0.5477,1.5749,2.1979,9.1944,7.7326,17.4921,2.8912,2.6124,-2.0470,901.2079,-46.8846,-23.0702,-24.0462,4636.9087,75.7358,-67.4016,-31.7372,46.89540090,-114.03368220,5.34307384,958.27362061,
39.080725,3.1513,0.2255,2.2760,42.7896,-1.5963,29.5796,3.2213,4.9857,-1.6407,901.3284,-39.3206,-36.7098,-18.3488,4636.9087,54.8446,-108.4291,-40.2130,46.89540090,-114.03368220,5.34307384,958.27362061,
39.181289,0.5522,-1.6303,-0.8287,10.8344,-21.9399,-1.3225,3.2026,-0.4352,1.8935,901.2633,-37.2100,-39.1498,-13.9812,4636.9087,44.0423,-133.9593,-32.4764,46.89540090,-114.03368220,5.34307384,958.27362061,
39.281408,0.4203,-1.4082,0.4347,8.7591,-20.7990,9.5234,-2.6825,-2.5820,1.6996,901.2380,-41.6142,-35.1482,-14.7864,4636.9087,52.1817,-125.3585,-30.8269,46.89540090,-114.03368220,5.34307384,958.27362061,
39.381600,3.5843,1.0216,2.3283,38.4870,1.1466,23.7053,-2.4897,-3.4446,2.0905,901.2307,-47.1164,-28.8286,-17.8486,4636.9087,65.7170,-97.2761,-28.9491,46.89540090,-114.03368220,5.34307384,958.27362061,
39.482102,-0.6217,0.6437,0.5297,-1.1925,-1.7579,3.3352,-1.7734,-2.2632,0.6867,901.3005,-47.0188,-23.0214,-25.6322,4636.9087,70.1222,-75.5374,-29.7542,46.89540090,-114.03368220,5.34307384,958.27362061,
39.582318,-0.4910,0.9987,-0.0270,-0.3374,1.9336,-4.5742,-1.7481,-0.1174,-1.1070,901.1875,-48.9830,-19.0076,-24.9734,4636.9087,75.4628,-64.7645,-25.9138,46.89540090,-114.03368220,5.34307384,958.27362061,
39.682488,0.5433,1.5621,2.0910,10.8447,7.6354,17.9685,3.9376,3.8174,-0.8155,901.1777,-44.6642,-25.6200,-26.6936,4636.9087,70.9524,-72.8688,-34.9929,46.89540090,-114.03368220,5.34307384,956.98028564,
39.782877,1.3037,-0.1980,0.8290,19.4660,-8.9991,10.7019,1.1646,4.6603,-0.3891,901.2715,-39.9550,-34.5016,-24.3268,4636.9087,53.6529,-103.2394,-35.0553,46.89535680,-114.03364000,5.66020918,956.98028564,
39.883148,0.1805,-1.6042,-1.1585,6.7526,-22.5439,-6.5489,2.2407,-0.5829,1.1806,901.3182,-41.6508,-32.5374,-17.2508,4636.9087,53.3034,-120.8041,-30.0462,46.89535680,-114.03364000,5.66020918,956.98028564,
39.983408,0.6640,-1.2501,0.2683,11.0052,-20.5081,5.1202,-3.7735,-1.3826,1.1615,901.2947,-45.4938,-28.3528,-15.8234,4636.9087,64.7454,-105.0643,-29.7432,46.89535680,-114.03364000,5.66020918,956.98028564,
40.084067,5.0098,1.4156,2.9371,53.7345,4.8963,27.9177,-2.2214,-2.0459,0.6662,901.3343,-53.7044,-18.4220,-10.9068,4636.9087,79.8260,-76.1861,-20.2910,46.89535680,-114.03364000,5.66020918,956.98028564,
40.184230,-0.3966,0.7249,0.3777,-0.5046,0.0600,-1.7998,-1.4147,-0.2352,0.8299,901.2731,-50.4836,-17.0068,-22.2528,4636.9087,81.5427,-51.2646,-19.8640,46.89535680,-114.03364000,5.66020918,956.98028564,
40.284505,-0.4578,1.5115,1.3062,-1.3956,8.4129,5.4819,-0.6577,-1.0788,-1.2149,901.1993,-49.9102,-15.1646,-24.7416,7878.5435,83.6118,-44.1841,-20.5581,46.89535680,-114.03364000,5.66020918,956.98028564,
40.384946,0.6641,0.9901,2.4590,11.9521,3.4298,19.7547,4.9746,3.6864,-0.3631,901.3595,-41.0286,-30.3658,-27.2792,7878.5435,80.0603,-59.6639,-38.2717,46.89535680,-114.03364000,5.66020918,956.98028564,
40.485226,-0.1085,-1.2551,-0.0938,5.6029,-19.2912,0.6389,2.5259,2.6950,0.6914,901.2867,-34.0746,-39.0034,-24.4000,7878.5435,54.1127,-99.6726,-41.0464,46.89535680,-114.03364000,5.66020918,956.98028564,
40.585602,0.1006,-1.6620,-1.2928,9.3436,-20.2983,-8.6019,0.4141,0.0724,-0.7861,901.2277,-38.8204,-35.2092,-14.3838,7878.5435,58.2337,-116.2883,-32.4891,46.89535680,-114.03364000,5.66020918,956.98028564,
40.685949,1.1095,-1.1574,0.6136,16.0368,-19.3528,6.6436,-4.3859,-1.2339,0.6275,901.2280,-40.2844,-34.6114,-13.3956,4323.8135,69.3006,-96.2273,-35.0246,46.89535680,-114.03364000,5.66020918,956.96685791,
40.786003,2.8817,1.2614,2.8771,33.6869,4.7352,25.0497,-4.8433,1.4166,-0.0992,901.2062,-48.7756,-24.2536,-18.2268,4323.8135,82.0741,-61.1033,-25.1495,46.89531660,-114.03360290,4.61799431,956.96685791,
40.886649,0.1028,0.6215,0.3481,5.2462,0.0692,-2.8163,-0.9614,-1.0955,0.9387,901.2457,-45.9330,-17.7754,-30.4756,6946.2549,79.9237,-43.4794,-26.8076,46.89531660,-114.03360290,4.61799431,956.96685791,
40.987215,-0.6890,1.3623,1.8654,-2.8937,7.9799,10.8032,-0.7694,0.7454,-2.5275,901.1315,-47.0920,-16.7018,-30.3292,6946.2549,87.1954,-38.9068,-21.5690,46.89531660,-114.03360290,4.61799431,956.96685791,
41.087207,1.1564,0.5742,2.5174,16.4716,-0.2873,20.3429,4.6688,3.2736,1.0089,901.2289,-36.0754,-30.4146,-33.3670,28094.1660,78.0309,-58.8874,-38.2834,46.89531660,-114.03360290,4.61799431,956.96685791,
41.187464,0.6957,-0.9257,0.5109,15.0937,-15.2155,6.6026,1.6573,2.8497,-0.6138,901.2565,-31.2686,-38.2714,-30.1340,28094.1660,57.6735,-91.9217,-39.5452,46.89531660,-114.03360290,4.61799431,956.96685791,
41.288119,0.7450,-1.0659,-0.5735,13.9764,-16.7529,-2.9043,0.8201,1.6718,-1.4719,901.1991,-29.7558,-41.9070,-22.7164,19884.2773,51.3382,-109.3912,-37.6707,46.89531660,-114.03360290,4.61799431,956.96685791,
41.388567,0.5275,-0.3508,0.1562,10.9370,-10.5661,2.9346,-1.5271,-1.4934,-0.5836,901.0948,-22.2528,-44.5422,-25.0832,7386.6821,44.6318,-115.3813,-45.9530,46.89531660,-114.03360290,4.61799431,956.96685791,
41.488959,0.9617,1.0475,2.2750,15.4890,3.0147,20.4385,-4.7053,-1.2110,-1.1100,901.1002,-22.6554,-40.0648,-33.4402,7386.6821,63.0748,-79.4510,-36.4920,46.89531660,-114.03360290,4.61799431,956.96685791,
41.589209,0.1559,0.3879,1.6864,8.1578,-2.2755,13.4552,0.6969,-0.9138,-0.0977,901.2905,-14.0666,-30.7318,-47.8850,15446.0020,61.5174,-60.1412,-43.8668,46.89531660,-114.03360290,4.61799431,956.96685791,
41.689692,-0.2054,0.1847,1.1611,6.4151,-2.2087,2.8188,0.7898,0.6287,-0.9525,901.1727,-8.9670,-31.5858,-48.5804,15446.0020,59.9818,-61.1066,-39.5650,46.89531660,-114.03360290,4.61799431,956.99072266,
41.790050,-0.6319,0.6366,1.0455,0.9176,0.4470,5.4218,0.4035,2.0512,0.6422,901.1017,0.2440,-39.7964,-40.9310,15446.0020,45.1548,-75.2880,-45.9091,46.89527860,-114.03356680,4.62373018,956.99072266,
41.890550,0.3481,0.3809,0.6363,10.1163,-3.6953,6.0404,-0.4491,0.5291,0.3706,901.2994,-4.3310,-42.5292,-38.3202,15446.0020,45.9439,-76.6498,-38.5767,46.89527860,-114.03356680,4.62373018,956.99072266,
41.991372,0.4201,-0.0058,0.5925,9.0569,-8.4583,2.0282,-1.4511,-1.3931,-0.4498,901.3328,-3.0378,-36.5634,-44.9570,15446.0020,45.1502,-66.9308,-38.6741,46.89527860,-114.03356680,4.62373018,956.99072266,
42.092041,0.1541,0.2029,1.1742,8.5810,-3.3261,8.4760,1.8416,1.3677,-1.1459,901.4040,-0.1098,-34.0136,-47.4458,15446.0020,46.7680,-60.6174,-40.7190,46.89527860,-114.03356680,4.62373018,956.99072266,
42.192630,0.5344,0.3211,0.7409,10.4093,-4.0101,3.9796,-0.5687,-1.2818,0.3142,901.3372,1.2078,-39.6134,-41.2482,15446.0020,49.8155,-62.3943,-36.3094,46.89527860,-114.03356680,4.62373018,956.99072266,
42.292995,0.1361,0.3275,0.9129,5.4195,-3.7025,5.0273,-0.5944,-0.4378,0.6625,901.5742,-0.1220,-34.1966,-47.3482,15446.0020,55.7487,-47.8198,-27.3787,46.89527860,-114.03356680,4.62373018,956.99072266,
42.393528,-0.0352,0.0120,1.0575,1.4158,-4.3766,2.3534,-0.4450,0.2820,-0.1921,901.4822,-2.9036,-31.2442,-49.6784,36466.7031,62.0304,-30.6002,-12.1674,46.89527860,-114.03356680,4.62373018,956.99072266,
42.493892,-0.0960,0.2173,0.8330,1.2022,-2.2204,0.5209,1.7415,-0.1261,0.6077,901.3603,-1.1834,-32.6838,-48.6780,36466.7031,58.5910,-32.6539,-13.7323,46.89527860,-114.03356680,4.62373018,956.99072266,
42.594260,-0.0823,0.7346,0.7085,0.1893,0.4696,0.2487,1.6396,-0.9911,0.6243,901.2068,-4.3066,-41.8094,-39.4670,36466.7031,58.1970,-46.3780,-9.8589,46.89527860,-114.03356680,4.62373018,956.99072266,
42.694507,-0.1953,0.2556,0.2781,0.6518,-3.9292,-2.6389,-0.9563,2.7023,0.1461,901.2230,-3.6112,-41.7240,-38.7350,31679.5586,56.5938,-46.1389,-10.8275,46.89527860,-114.03356680,4.62373018,956.96685791,
42.795423,0.1026,0.0914,0.8884,2.5657,-4.5201,1.3061,-0.5570,-1.0168,0.1793,901.2059,-4.3676,-36.3438,-45.0424,20756.7441,55.7732,-37.4216,-10.0036,46.89525510,-114.03353720,3.35806775,956.96685791,
42.895114,-0.0601,0.1996,1.0348,0.3697,-2.2814,1.4699,1.0522,-0.3787,-0.0142,901.2703,-6.8320,-35.8680,-45.2254,20756.7441,59.3402,-28.4919,-4.8050,46.89525510,-114.03353720,3.35806775,956.96685791,
42.995689,0.0414,0.5067,1.2209,1.3652,-0.1523,3.0529,0.7993,-0.2896,-0.0827,901.2643,-6.4050,-38.7716,-41.1750,20756.7441,60.9647,-32.6196,-3.6323,46.89525510,-114.03353720,3.35806775,956.96685791,
43.096037,0.1728,0.6960,0.5714,2.4736,0.9064,-2.0117,-0.4061,0.0849,-0.0773,901.2004,-7.3566,-42.1876,-37.3320,20756.7441,62.1318,-39.8254,-2.4285,46.89525510,-114.03353720,3.35806775,956.96685791,
43.196020,0.1688,0.4338,0.9848,2.2144,-0.1499,0.8665,-1.6170,-0.1243,-0.1214,901.1826,-7.3932,-38.6374,-42.9684,20756.7441,64.5984,-32.1566,-1.9433,46.89525510,-114.03353720,3.35806775,956.96685791,
43.296457,0.0233,0.5067,0.6877,0.5627,0.2789,-1.3392,0.9587,0.2352,-0.0492,901.2282,-7.6372,-37.9298,-43.4686,20756.7441,68.0285,-31.3707,-0.4862,46.89525510,-114.03353720,3.35806775,956.96685791,
43.396753,-0.0084,0.5701,0.9637,0.3566,0.1706,1.2172,0.8786,-0.2602,0.0036,901.1813,-7.1370,-41.2848,-39.4304,20756.7441,70.7216,-36.6349,-0.8671,46.89525510,-114.03353720,3.35806775,956.96685791,
43.496926,-0.1934,0.6245,0.8869,-0.9593,0.1465,1.1060,0.5138,0.7228,0.2545,901.1599,-5.4046,-41.6264,-37.9664,20756.7441,71.6941,-40.1208,-2.0230,46.89525510,-114.03353720,3.35806775,956.96685791,
43.597392,0.1139,0.5516,0.7354,1.0359,-0.3995,-0.1398,-0.5359,-1.3311,-0.0052,901.0885,-7.9300,-43.8590,-35.3678,20756.7441,73.6757,-42.8904,0.6320,46.89525510,-114.03353720,3.35806775,956.96685791,
43.697536,-0.0524,0.3419,0.9256,-0.2990,-1.6147,0.2911,-1.8887,1.0126,0.2653,901.1709,-6.7466,-39.0156,-42.6634,20756.7441,75.6210,-33.5246,-1.0486,46.89525510,-114.03353720,3.35806775,957.04956055,
43.797690,0.0181,0.3557,0.8660,0.8900,-0.4761,-0.2022,0.6674,-0.1054,-0.3183,901.2210,-7.2346,-36.6122,-43.4320,20756.7441,76.2232,-28.4940,-1.5894,46.89524700,-114.03352550,3.34367275,957.04956055,
43.898096,0.0632,0.5669,0.7814,0.8572,0.2761,-0.6818,1.0649,-0.2808,-0.1369,901.2986,-6.7466,-41.0652,-39.9672,20756.7441,79.7074,-33.8783,-0.8651,46.89524700,-114.03352550,3.34367275,957.04956055,
43.998160,0.0063,0.5781,1.0218,0.3182,-0.0311,2.2736,0.0405,0.9845,0.0622,901.3110,-4.2578,-41.2482,-39.3450,20756.7441,82.9389,-34.8514,-2.6338,46.89524700,-114.03352550,3.34367275,957.04956055,
44.099035,-0.0994,0.3977,1.0543,-0.1171,-1.1952,1.4620,-1.2602,-0.7524,-0.6583,901.1448,-2.8060,-40.8456,-40.3088,20756.7441,87.0841,-36.6338,-2.9746,46.89524700,-114.03352550,3.34367275,957.04956055,
44.199175,-0.0440,0.4416,0.7708,0.5044,-0.0236,-1.3390,-0.2480,-0.6925,-0.1611,901.1816,-0.7930,-37.4052,-44.1518,20756.7441,88.5314,-31.4605,-4.8157,46.89524700,-114.03352550,3.34367275,957.04956055,
44.299477,-0.1817,0.5521,0.5863,-0.7252,0.1029,-2.2647,0.8807,0.1132,-0.0384,901.1846,-1.3054,-39.8818,-41.2482,20756.7441,91.9509,-34.3517,-4.3014,46.89524700,-114.03352550,3.34367275,957.04956055,
44.399523,-0.1712,0.6272,0.8602,-0.4646,0.4772,0.3443,0.1742,0.6013,-0.0404,901.1832,-0.5490,-41.8582,-38.8692,20756.7441,93.9510,-38.1015,-4.8913,46.89524700,-114.03352550,3.34367275,957.04956055,
44.499881,-0.3574,0.6154,0.9121,-1.8829,0.2426,0.9760,-0.0335,0.0350,0.0232,901.2151,1.1468,-42.4804,-37.8322,20756.7441,94.6141,-39.5512,-6.6224,46.89524700,-114.03352550,3.34367275,957.04956055,
44.600118,0.0404,0.5530,0.9908,1.4190,0.0312,1.9673,-0.6764,-0.0461,0.1757,901.3208,-1.5982,-41.7850,-38.9668,20756.7441,95.4526,-37.9862,-4.3949,46.89524700,-114.03352550,3.34367275,957.08740234,
44.700437,-0.0918,0.3661,0.7735,-0.0024,-1.5608,-0.2523,-0.2182,0.1812,0.4149,901.2788,-1.8300,-39.2108,-41.5410,20756.7441,96.6322,-33.5126,-4.3071,46.89523880,-114.03351590,1.69405079,957.08740234,
44.800313,-0.1229,0.4409,0.7239,-0.7070,-1.0886,-1.2927,0.2682,-0.5776,0.3550,901.2281,-3.5014,-39.4792,-41.9558,20756.7441,97.5325,-34.3253,-2.4827,46.89523880,-114.03351590,1.69405079,957.08740234,
44.900767,-0.0568,0.5595,0.8068,-0.1183,-0.1226,-0.0262,0.4882,-0.1555,-0.0986,901.3093,-6.2342,-40.7358,-39.6378,20756.7441,100.0740,-36.6153,0.7966,46.89523880,-114.03351590,1.69405079,957.08740234,
45.000965,-0.0243,0.6618,0.8970,-0.2047,0.7018,1.6289,0.2722,0.3007,-0.1025,901.3513,-6.7710,-41.7728,-38.0762,6470.7847,103.1013,-38.1894,0.9913,46.89523880,-114.03351590,1.69405079,957.08740234,
45.101432,-0.0871,0.4526,0.9511,-0.5628,-1.0129,1.7632,-0.7588,0.5816,-0.0116,901.3694,-5.6852,-41.0408,-39.4426,6470.7847,105.9013,-35.8489,0.3617,46.89523880,-114.03351590,1.69405079,957.08740234,
45.201692,0.0633,0.4445,0.7664,0.7343,-0.3529,-0.7450,-0.2719,-0.6533,-0.0976,901.2527,-5.5632,-39.0522,-41.3946,6470.7847,107.6638,-32.4259,0.9926,46.89523880,-114.03351590,1.69405079,957.08740234,
45.302063,-0.0301,0.5234,0.7255,-0.1129,0.2181,-1.2246,0.4163,0.4971,-0.1100,901.2453,-5.5876,-39.0766,-42.3584,10935.9072,109.3057,-32.0496,0.1109,46.89523880,-114.03351590,1.69405079,957.08740234,
45.402492,-0.1464,0.5951,1.0130,-0.7254,0.6029,1.3308,0.0237,0.1507,-0.1464,901.2631,-3.9162,-40.0648,-41.1262,12254.8613,110.1369,-34.4078,-3.2188,46.89523880,-114.03351590,1.69405079,957.08740234,
45.502573,-0.1941,0.6616,0.7230,-0.6842,0.7589,-0.6822,0.0129,-0.0068,0.0673,901.3191,-1.9032,-41.7362,-39.4914,12254.8613,110.2947,-38.3496,-5.8141,46.89523880,-114.03351590,1.69405079,957.08740234,
45.602419,-0.0739,0.4510,0.8062,0.4166,-0.8909,0.0465,-0.7234,0.4001,0.1121,901.3520,-2.2082,-40.4308,-41.1506,12254.8613,111.2467,-34.6415,-5.2741,46.89523880,-114.03351590,1.69405079,957.08740234,
45.702913,-0.0974,0.3606,0.6998,0.1505,-0.8485,-1.2396,0.1569,0.3792,0.2504,901.3223,-3.2696,-38.5764,-43.5296,12254.8613,112.1437,-27.8250,-4.3718,46.89523880,-114.03351590,1.69405079,957.03149414,
45.803224,-0.0831,0.4598,0.7177,-0.3253,-0.1155,-1.8647,0.1340,-0.3972,0.2889,901.2034,-3.7088,-38.1494,-43.0904,12254.8613,113.0687,-29.6824,-2.8670,46.89522760,-114.03350590,1.60655117,957.03149414,
45.903120,-0.0838,0.4738,1.0432,-0.5489,-0.0080,1.5462,0.1088,-0.4783,-0.2490,901.3016,-5.6730,-39.3328,-41.0896,12254.8613,115.8438,-30.3647,-0.9642,46.89522760,-114.03350590,1.60655117,957.03149414,
46.003746,0.0103,0.6741,0.8056,0.2334,1.7677,-0.4039,-0.1994,-0.0578,-0.3424,901.2975,-5.5754,-40.5894,-40.6992,12254.8613,118.7703,-31.8493,-0.4132,46.89522760,-114.03350590,1.60655117,957.03149414,
46.103900,-0.0835,0.3644,0.9534,-0.4461,-0.7398,1.7735,-0.4710,0.6371,0.1287,901.3782,-3.9162,-38.1006,-43.9322,12254.8613,121.8234,-26.6297,-1.8979,46.89522760,-114.03350590,1.60655117,957.03149414,
46.204066,-0.0355,0.3010,0.8532,0.0859,-1.0238,-0.0013,0.3163,0.1797,0.0775,901.2786,-4.3188,-35.7826,-44.9204,12254.8613,123.2257,-24.8137,-1.2374,46.89522760,-114.03350590,1.60655117,957.03149414,
46.304403,-0.0637,0.5262,0.6920,-0.0534,1.0404,-2.3830,-0.1170,0.0735,-0.0686,901.1600,-3.1354,-36.7464,-44.4324,12254.8613,123.4168,-27.0221,-2.7467,46.89522760,-114.03350590,1.60655117,957.03149414,
46.404724,-0.2159,0.5061,0.9624,-1.0463,0.7153,0.8235,0.2900,0.3752,-0.1990,901.3094,-1.1956,-37.6370,-44.4690,12254.8613,124.7550,-27.3890,-5.2955,46.89522760,-114.03350590,1.60655117,957.03149414,
46.504716,-0.1785,0.4979,1.1825,-0.4910,0.7572,2.9895,0.5232,-0.8138,-0.0447,901.4058,1.5982,-37.6980,-43.6394,12254.8613,125.3733,-28.8651,-7.5998,46.89522760,-114.03350590,1.60655117,957.03149414,
